Unnamed: 0,attitude.roll,attitude.pitch,attitude.yaw,gravity.x,gravity.y,gravity.z,rotationRate.x,rotationRate.y,rotationRate.z,userAcceleration.x,userAcceleration.y,userAcceleration.z
0,0.086504,-1.172129,1.18166,0.033538,0.921579,-0.386739,1.461974,-4.623707,1.674768,-0.067855,-0.048792,0.413061
1,0.059453999999999986,-1.146609,1.2482540000000002,0.024456,0.911373,-0.410853,0.969699,-4.170838,1.271234,-0.160289,-0.187298,0.645487
2,0.029339,-1.13004,1.295114,0.012515,0.904429,-0.42644,0.704113,-3.355548,0.880569,-0.2177,-0.262095,0.58739
3,-0.00434,-1.119799,1.327633,-0.001892,0.900013,-0.43586,0.353412,-3.073109,0.617112,-0.186981,-0.207996,0.391212
4,-0.041066000000000005,-1.118417,1.3512620000000002,-0.017945,0.89941,-0.436738,-0.076783,-2.783454,0.482344,-0.15376199999999998,-0.193431,0.4648600000000001
5,-0.076909,-1.124464,1.369579,-0.033166,0.902036,-0.430384,-0.391939,-2.5155830000000003,0.367636,-0.104941,-0.233198,0.4762520000000001
6,-0.11213499999999997,-1.137261,1.381474,-0.047007,0.907486,-0.417444,-0.751645,-2.153957,0.288817,-0.053396000000000006,-0.290161,0.366342
7,-0.145242,-1.157572,1.386993,-0.058119,0.915831,-0.397336,-1.1496,-1.7527990000000002,0.213952,-1.7e-05,-0.263808,0.258603
8,-0.18075,-1.18569,1.381939,-0.067531,0.926759,-0.369538,-1.538997,-1.420616,0.064459,0.025554,-0.25676,0.203202
9,-0.227511,-1.219929,1.357022,-0.077525,0.939075,-0.334855,-1.892587,-1.037094,-0.167101,0.053813,-0.10738,0.034638
10,-0.288029,-1.256848,1.310357,-0.087723,0.951122,-0.296095,-1.962871,-0.6878810000000001,-0.322932,0.107987,0.133168,-0.246477
11,-0.36079,-1.285167,1.249577,-0.099465,0.959485,-0.263621,-1.338184,-0.91756,-0.436847,0.193383,0.270542,-0.550268
12,-0.420166,-1.2926,1.218548,-0.112022,0.961552,-0.250736,0.129679,-1.753035,-0.03669,0.510703,0.474819,-0.523694
13,-0.386888,-1.273906,1.292922,-0.110381,0.956251,-0.270925,1.768479,-1.891815,1.012178,0.6190939999999999,0.162142,-0.233149
14,-0.28765,-1.250825,1.4305370000000002,-0.08923400000000001,0.949244,-0.301616,1.700862,-1.38361,1.851745,0.585359,-0.03947,-0.061055
15,-0.17003,-1.238264,1.57456,-0.055237,0.945219,-0.32173,0.610705,-0.545912,2.16566,0.377777,-0.228666,0.8183739999999999
16,-0.101557,-1.254034,1.6527619999999998,-0.031580000000000004,0.950249,-0.309887,-1.198424,-0.460537,0.5014430000000001,0.034525,0.859383,0.92886
17,-0.187363,-1.279514,1.568918,-0.053492999999999985,0.957876,-0.28215500000000004,-1.276074,0.251629,-1.6994810000000002,-0.122243,1.033808,1.15952
18,-0.230887,-1.25778,1.479306,-0.070467,0.951409,-0.299758,2.572125,3.093335,-1.194475,-0.899992,0.353034,0.51625
19,-0.212355,-1.205755,1.492219,-0.07524,0.934109,-0.34896900000000003,1.074114,-2.885524,-0.030779,-0.638704,-0.017787999999999998,-1.888244
20,-0.325727,-1.21586,1.468955,-0.111209,0.937669,-0.329257,-1.457474,-4.755944,-0.28427800000000003,0.045062,-0.465363,0.705234
21,-0.467758,-1.256026,1.40365,-0.139594,0.950867,-0.27634200000000003,-2.4779880000000003,-3.183385,-0.251761,0.4128020000000001,-0.371262,1.268468
22,-0.57513,-1.280198,1.321199,-0.155854,0.958073,-0.24043,-0.925858,-0.406291,-0.511534,0.500077,0.017529,0.96214
23,-0.5578649999999999,-1.276943,1.323001,-0.15333,0.957135,-0.245729,0.4990520000000001,1.209134,0.266537,0.568705,0.490512,0.13200499999999998
24,-0.530734,-1.286455,1.343642,-0.141992,0.959847,-0.241935,-1.008964,-0.494482,0.567971,0.581415,0.335685,-0.894708
25,-0.571621,-1.3211190000000002,1.333243,-0.133675,0.968992,-0.20781,-1.620651,-1.891379,0.911593,0.28791100000000003,-0.040083,-0.183456
26,-0.623871,-1.357753,1.316935,-0.123517,0.977392,-0.17160599999999998,-1.660648,-1.6829060000000002,0.7604270000000001,0.021374,-0.203344,0.292333
27,-0.712601,-1.388816,1.259818,-0.118324,0.983487,-0.136939,-1.408593,-1.693199,0.452416,-0.19529,-0.289121,0.286369
28,-0.7979,-1.41084,1.20577,-0.114023,0.987234,-0.111207,-1.043201,-1.437354,0.357432,-0.193091,-0.159643,0.15809700000000002
29,-0.906208,-1.4265290000000002,1.122479,-0.11317,0.989611,-0.088667,-0.966632,-1.278908,0.094982,-0.186894,-0.102496,-0.138354
30,-1.0482479999999998,-1.439033,1.004002,-0.11385,0.991332,-0.065572,-1.056558,-1.172878,0.031193,-0.037029,-0.128462,0.001317
31,-1.197534,-1.44681,0.872698,-0.115153,0.992324,-0.045096,-0.791087,-0.808136,-0.036855,0.08845,-0.07994,0.160316
32,-1.307209,-1.449847,0.7744300000000001,-0.116487,0.992694,-0.031436,-0.561254,-0.468058,-0.033549,0.10753,-0.101017,0.13277
33,-1.395951,-1.451408,0.6902020000000001,-0.11728800000000003,0.992882,-0.020719,-0.4702810000000001,-0.174328,-0.040767000000000005,0.024393,-0.052925,0.061841
34,-1.475526,-1.450333,0.612472,-0.119627,0.992753,-0.011432,-0.454382,-0.093948,-0.17535499999999998,0.004179,-0.007370999999999998,0.047869
35,-1.563848,-1.445633,0.52495,-0.124834,0.992177,-0.000867,-0.581758,-0.069583,-0.296985,0.047701,0.001796,0.08473
36,-1.667959,-1.438885,0.422583,-0.130909,0.991312,0.01276,-0.7177100000000001,-0.178802,-0.305272,0.136371,-0.066737,0.13802799999999998
37,-1.778576,-1.430582,0.316316,-0.13675,0.990186,0.02883,-0.807968,-0.30956300000000003,-0.293985,0.284394,-0.034283999999999995,0.130197
38,-1.895571,-1.4206379999999998,0.205757,-0.141774,0.988747,0.047735,-0.97407,-0.4295350000000001,-0.25119400000000003,0.348973,0.006156,0.101298
39,-2.011325,-1.408684,0.097909,-0.145994,0.986889,0.068825,-0.987983,-0.429524,-0.241677,0.434919,0.056507,0.118537
40,-2.095748,-1.395681,0.018061,-0.15076199999999998,0.984706,0.087315,-0.8310270000000001,-0.197709,-0.273993,0.389059,0.057667,0.095119
41,-2.1487830000000003,-1.382939,-0.033594,-0.156419,0.982407,0.102031,-0.666054,-0.08946,-0.31464000000000003,0.329317,0.097092,0.069661
42,-2.180543,-1.370651,-0.063362,-0.162985,0.980038,0.113852,-0.544557,-0.176998,-0.3735,0.269293,0.138722,0.005579
43,-2.203588,-1.358214,-0.079309,-0.17013399999999998,0.977489,0.124776,-0.460406,-0.495601,-0.424846,0.316649,0.130924,-0.110356
44,-2.223131,-1.347321,-0.086601,-0.17611400000000002,0.975133,0.134533,-0.34401,-0.644343,-0.358681,0.44058,0.136515,-0.053722000000000006
45,-2.230633,-1.340032,-0.083199,-0.180711,0.973492,0.140203,-0.06513200000000001,-0.470932,-0.276839,0.505204,0.209003,-0.107122
46,-2.212982,-1.339979,-0.057837,-0.183199,0.97348,0.137023,0.416152,-0.271968,-0.10068,0.350085,0.356248,-0.085998
47,-2.166764,-1.3483040000000002,-0.007804999999999999,-0.18262,0.97535,0.123859,0.863244,-0.087787,0.07205399999999999,0.269733,0.375373,-0.183323
48,-2.093722,-1.363483,0.074681,-0.178324,0.978588,0.102795,1.310708,-0.541671,0.235995,0.129191,0.442341,-0.133649
49,-1.977647,-1.383285,0.203499,-0.171198,0.982471,0.073768,1.7595740000000002,-0.475588,0.370437,-0.035269,0.450207,0.014016
50,-1.782098,-1.404067,0.412069,-0.16226600000000002,0.986133,0.034807,2.183682,-0.5199590000000001,0.44289,-0.019847,0.253247,0.004179
51,-1.523594,-1.417473,0.687116,-0.152554,0.988269,-0.0072060000000000015,2.23909,-0.69411,0.5225489999999999,0.010922,-0.047992,0.211094
52,-1.227942,-1.420421,0.997731,-0.14109000000000002,0.988715,-0.050362,2.309145,-0.441203,0.618854,-0.002831,0.052529999999999986,0.311776
53,-0.922353,-1.408042,1.307181,-0.129148,0.986785,-0.097862,2.4597130000000003,0.253027,0.570946,-0.109942,0.352235,0.341453
54,-0.6811649999999999,-1.38179,1.545145,-0.11830999999999997,0.982191,-0.145955,2.320424,0.281519,0.493025,-0.340919,0.466081,0.12997899999999998
55,-0.513092,-1.353323,1.716916,-0.105912,0.976446,-0.18798,2.051492,-0.17352,0.767331,-0.312682,0.200236,0.27562600000000004
56,-0.375699,-1.32481,1.863469,-0.089351,0.969898,-0.226529,1.968718,-0.355111,0.96247,-0.228169,0.079953,0.319943
57,-0.263408,-1.294297,1.989414,-0.071079,0.962017,-0.263574,1.974815,-0.486859,1.136802,-0.16933800000000002,-0.06138200000000001,0.391473
58,-0.160416,-1.259379,2.111292,-0.048942,0.9519,-0.302474,2.114362,-0.8925129999999999,1.494014,-0.151162,-0.027706,0.329391
59,-0.074264,-1.223917,2.225928,-0.025224,0.940438,-0.339027,1.869901,-1.207754,1.6849900000000002,-0.140593,0.070975,0.268746
60,-0.010214,-1.190586,2.323513,-0.003791,0.928587,-0.371096,1.6662290000000002,-1.492255,1.613429,-0.118295,0.020388,0.245669
61,0.023874,-1.158852,2.39838,0.009558,0.916344,-0.400278,1.528047,-1.876351,1.3501729999999998,-0.076163,-0.0859,0.324198
62,0.033461000000000005,-1.12906,2.451844,0.014302,0.904011,-0.427271,1.395711,-1.967285,1.028899,-0.078084,-0.180836,0.364771
63,0.026154000000000004,-1.10499,2.487823,0.011746,0.89346,-0.44899,0.995975,-1.976305,0.701379,-0.15469000000000002,-0.280468,0.315201
64,0.00878,-1.093119,2.510139,0.004036,0.888065,-0.4597,0.31447,-1.722487,0.422828,-0.105858,-0.413608,0.378951
65,-0.010971,-1.095805,2.521969,-0.005017,0.8892969999999999,-0.457303,-0.396941,-1.425093,0.195288,0.008542000000000001,-0.642638,0.284864
66,-0.033365,-1.111699,2.524265,-0.014783,0.896453,-0.442893,-1.014194,-1.039722,-0.003934,0.09715,-0.822081,0.285544
67,-0.051746,-1.138182,2.519405,-0.021685,0.907873,-0.418685,-1.472538,-0.52551,-0.060137,0.051897000000000006,-0.810308,0.213607
68,-0.066173,-1.168954,2.509936,-0.025862,0.920342,-0.390259,-1.565576,-0.15318800000000002,-0.114675,0.041228,-0.743233,0.114166
69,-0.08094,-1.199404,2.493183,-0.029342,0.931823,-0.361725,-1.517544,0.160505,-0.281384,0.116729,-0.570419,0.130417
70,-0.100942,-1.227703,2.461347,-0.0339,0.941719,-0.334689,-1.395777,0.6818960000000001,-0.50446,0.169398,-0.34844200000000003,0.194934
71,-0.130197,-1.2495690000000002,2.412417,-0.040991,0.948848,-0.31306,-1.014864,0.895769,-0.772334,0.211981,-0.07610700000000001,0.15713
72,-0.172228,-1.259551,2.352135,-0.052483,0.951953,-0.301713,-0.402276,0.6254890000000001,-0.8456889999999999,0.084207,0.12336400000000003,0.095765
73,-0.209636,-1.26197,2.307161,-0.063251,0.952691,-0.297286,-0.253938,0.034468,-0.493518,-0.133984,0.142234,-0.06572
74,-0.239797,-1.271195,2.284209,-0.070097,0.955454,-0.286694,-0.720837,-0.684493,-0.114503,-0.180925,0.043798,-0.24393
75,-0.286967,-1.287378,2.255049,-0.07915,0.960105,-0.268204,-0.911477,-1.024006,-0.292724,-0.038937,-0.021949,-0.160827
76,-0.351062,-1.299597,2.206408,-0.092125,0.96345,-0.251548,-0.703439,-0.7713720000000001,-0.513785,-0.035713,0.016973,-0.058694
77,-0.4245310000000001,-1.306067,2.152908,-0.107771,0.965163,-0.238422,-0.499339,-1.386846,-0.48807,-0.067262,0.197816,-0.08945800000000001
78,-0.490787,-1.311351,2.119486,-0.120915,0.966533,-0.226262,-0.365026,-1.723426,-0.083981,-0.119411,0.302785,0.019322
79,-0.515734,-1.318226,2.124434,-0.123241,0.968273,-0.21739,-0.28833200000000003,-1.307888,0.361471,-0.07510800000000001,0.069721,0.08415
80,-0.512876,-1.3321040000000002,2.144667,-0.116014,0.971648,-0.206012,-0.628513,-0.53013,0.6294270000000001,-0.140898,0.21927,0.135623
81,-0.516466,-1.352644,2.139937,-0.106873,0.976299,-0.188198,-1.043406,0.416233,0.357192,-0.327514,0.769825,0.373714
82,-0.487557,-1.372234,2.153878,-0.09241,0.980351,-0.174275,-0.563759,0.748379,0.794883,-0.243588,-0.015095,0.540211
83,-0.412446,-1.387384,2.227841,-0.07310900000000001,0.983227,-0.16709100000000002,-0.318411,-0.255669,0.988027,-0.048579,-0.479351,0.617988
84,-0.338243,-1.394748,2.310355,-0.058117,0.984544,-0.165217,0.16714,-0.094074,0.649381,0.012127,-0.482529,0.6090800000000001
85,-0.219237,-1.382405,2.397957,-0.04073,0.982307,-0.182796,1.364017,3.199811,0.6642020000000001,0.014455,-0.251853,0.472469
86,-0.050276,-1.349488,2.486991,-0.011031,0.975611,-0.219229,1.171766,3.016737,0.526362,0.156615,1.171148,-1.577158
87,-0.027978,-1.351564,2.496089,-0.006084,0.976065,-0.217395,-0.425916,-0.209884,0.022613,0.309062,1.091928,-0.050031
88,-0.011579,-1.352992,2.533167,-0.002502,0.976374,-0.216071,0.301502,-1.390601,0.554772,0.206085,-0.114085,0.541068
89,-0.011465,-1.344699,2.563658,-0.00257,0.974549,-0.224161,0.355045,-1.26775,0.156542,0.271033,-0.241547,0.4885350000000001
90,-0.015369,-1.33838,2.562344,-0.00354,0.973113,-0.230302,0.265122,0.547747,-0.098513,0.093307,-0.150084,0.136506
91,-0.031417,-1.349726,2.532246,-0.006887999999999999,0.975663,-0.219166,-1.053,0.5113300000000001,-0.503983,0.096228,0.479186,-0.083264
92,-0.08697200000000001,-1.372188,2.47127,-0.017138,0.980342,-0.19656,-1.071021,0.06291000000000001,-0.5035350000000001,0.270968,0.523442,0.111263
93,-0.121567,-1.385278,2.438031,-0.022369,0.982841,-0.183095,-0.461427,-0.180432,-0.118678,0.453551,0.361031,0.084569
94,-0.137003,-1.389288,2.429508,-0.024654,0.983573,-0.178822,-0.07657,-0.412155,-0.046258,0.332469,-0.03562,0.010136
95,-0.138759,-1.383932,2.433265,-0.025696,0.982592,-0.183994,0.549316,-0.158012,0.058201,0.211792,-0.051424,0.101505
96,-0.103606,-1.3619139999999998,2.47142,-0.021446,0.978263,-0.206254,1.524047,-0.193479,0.356679,0.02729,-0.053337,-0.085143
97,-0.060883000000000013,-1.317688,2.531105,-0.015237,0.968139,-0.24995100000000006,2.6589240000000003,-1.249652,0.559308,-0.037116,-0.137649,-0.29607
98,-0.050353,-1.256045,2.581514,-0.015582,0.950873,-0.309188,3.480656,-1.989373,0.484811,-0.105421,-0.16339800000000002,-0.201997
99,-0.07724299999999999,-1.173006,2.607777,-0.029893,0.921919,-0.386227,4.429582,-3.364758,-0.041977,-0.199981,-0.229216,0.066464
100,-0.155696,-1.097544,2.62081,-0.070677,0.890091,-0.45027,3.0216540000000003,-4.9036019999999985,-0.007111,-0.057176,-0.360489,0.574187
101,-0.211924,-1.06001,2.639285,-0.102828,0.872361,-0.477926,1.440209,-2.828293,-0.005862,0.297484,-0.749787,0.96285
102,-0.252859,-1.031126,2.634435,-0.128552,0.857878,-0.497513,1.53919,-1.3116450000000002,-0.813621,0.326703,-0.9000229999999999,0.873078
103,-0.275312,-0.999406,2.613309,-0.147015,0.84115,-0.520436,1.033073,0.483031,-0.8290700000000001,0.191861,-0.8115939999999999,0.757359
104,-0.250354,-0.987546,2.60833,-0.136444,0.834677,-0.53357,0.264812,1.886976,0.124096,-0.047089,-0.007513,0.394563
105,-0.193506,-0.999568,2.633865,-0.10397,0.8412379999999999,-0.530575,-0.832075,1.418121,1.107277,0.003598,0.496134,0.027966
106,-0.15168900000000002,-1.029655,2.666538,-0.077838,0.8571209999999999,-0.5092,-1.531147,0.280174,0.972461,0.017123,0.548045,-0.007554000000000002
107,-0.139725,-1.061718,2.6829110000000003,-0.06787699999999999,0.873194,-0.482623,-1.482426,-0.299621,0.469343,-0.071421,0.227499,0.221072
108,-0.144246,-1.098218,2.683813,-0.06543099999999999,0.8903979999999999,-0.450456,-2.199228,-0.106238,0.150031,-0.065581,0.081023,0.339494
109,-0.165116,-1.158506,2.655751,-0.065863,0.916205,-0.395259,-3.51135,0.362737,-0.37355,-0.089639,0.040032,0.189326
110,-0.234152,-1.2312299999999998,2.570143,-0.07728,0.942899,-0.32399,-3.829756,0.557146,-1.028708,0.031962,0.351779,-0.468613
111,-0.365654,-1.296245,2.423807,-0.09694,0.962547,-0.25319200000000003,-3.693766000000001,0.032138,-1.189455,0.08757100000000001,0.690163,-1.485959
112,-0.5451819999999999,-1.335422,2.258586,-0.120935,0.972427,-0.1994,-1.835776,-1.376672,-0.807203,0.250375,-0.058975,-0.845248
113,-0.611699,-1.341227,2.213384,-0.130678,0.973764,-0.186296,0.145654,-0.7805989999999999,-0.007915,0.220888,-0.187448,-0.433455
114,-0.573508,-1.329313,2.256892,-0.129755,0.970984,-0.200881,0.962661,-0.078401,0.037484,-0.01882,-0.027976,-0.173844
115,-0.5542729999999999,-1.320529,2.276228,-0.130351,0.968846,-0.210584,0.07953099999999999,0.167753,-0.014933000000000004,-0.079182,0.060039,-0.121982
116,-0.544033,-1.33262,2.273658,-0.122116,0.97177,-0.201869,-0.792247,0.890978,0.498275,-0.105942,-0.183287,0.33845
117,-0.506333,-1.354785,2.292876,-0.103947,0.97676,-0.187443,-0.8403010000000001,0.982461,0.838585,0.04189,-0.4970850000000001,0.522358
118,-0.449247,-1.377897,2.33129,-0.083255,0.981453,-0.172683,-0.8802540000000001,0.88456,0.8469770000000001,-0.184018,-0.338295,0.368392
119,-0.443047,-1.401919,2.328892,-0.07205299999999999,0.985774,-0.151848,-1.246993,0.09892,0.233331,-0.457442,0.26476,0.322502
120,-0.518599,-1.426208,2.252148,-0.071418,0.989565,-0.12514,-1.210346,-0.0048530000000000005,0.045713,-0.442162,0.147855,0.381534
121,-0.5068060000000001,-1.43834,2.26295,-0.064105,0.99124,-0.115469,-0.051827,0.193776,0.517159,0.235751,-0.107222,0.382436
122,-0.34468200000000004,-1.4357,2.403981,-0.04551,0.990888,-0.12676400000000002,0.720779,1.86391,0.966932,0.61744,0.264971,0.26153000000000004
123,-0.125651,-1.421187,2.558566,-0.018679,0.988829,-0.147877,1.1143459999999998,3.804157,0.797348,0.32651,0.523515,-0.508099
124,0.012384,-1.408339,2.647902,0.002003,0.986833,-0.161732,0.269563,1.471915,0.553017,0.118053,0.7673479999999999,-0.98605
125,0.034127,-1.404743,2.662142,0.00564,0.986245,-0.165195,0.151552,0.106449,-0.197017,-0.041177,1.375114,-0.279706
126,-0.016066,-1.405673,2.618501,-0.002641,0.986398,-0.164353,-0.002979,-0.8261120000000001,-0.218266,0.227418,-0.23395700000000005,0.294419
127,-0.030503,-1.39432,2.629929,-0.005354,0.984468,-0.17548,0.923648,-1.225202,0.212802,0.543806,-0.391252,0.16121300000000002
128,-0.002997,-1.373524,2.65866,-0.000587,0.980605,-0.195994,0.956247,0.801918,0.209364,0.434303,0.133546,-0.557851
129,0.023904,-1.36526,2.665924,0.004878,0.978952,-0.204034,0.05763400000000001,0.760107,-0.010504,0.341145,0.606589,-0.209098
130,0.025985,-1.368729,2.666514,0.005214,0.979654,-0.200627,-0.105549,-0.308227,0.096547,0.433537,0.239569,0.006901999999999999
131,0.049521,-1.359417,2.703601,0.010386,0.977742,-0.209552,0.8372799999999999,-0.85775,0.57065,0.469137,0.097316,0.034747
132,0.08361299999999999,-1.3252959999999998,2.769004,0.020298,0.970016,-0.242193,2.178429,-1.84312,1.003229,0.20155,-0.185394,0.159246
133,0.100411,-1.259611,2.827372,0.030693,0.951971,-0.304645,3.892109,-1.926186,1.109309,0.079949,-0.139242,0.121753
134,0.080541,-1.157223,2.853291,0.032333,0.91569,-0.400582,5.52785,-2.765418,0.706272,-0.199508,0.08946699999999999,-0.135673
135,0.002735,-1.067324,2.85372,0.00132,0.8759129999999999,-0.482468,3.531111,-4.2907720000000005,0.010617,-0.408516,-0.22154,0.7529600000000001
136,-0.0802,-1.016333,2.853612,-0.042179,0.850183,-0.524795,2.37607,-3.792304,-0.29932800000000004,-0.395107,-0.6256649999999999,1.073028
137,-0.145188,-0.953581,2.830485,-0.083735,0.815493,-0.572677,3.550161,-1.414435,-1.359192,-0.31246,-0.5536220000000001,0.72821
138,-0.167408,-0.886234,2.808697,-0.105364,0.774696,-0.623494,2.559119,0.23841,-0.917442,0.012331,0.175087,0.330189
139,-0.15818,-0.8657540000000001,2.800838,-0.102084,0.761584,-0.639975,0.07305199999999999,1.006528,-0.10898800000000003,0.246493,0.373319,0.307395
140,-0.14272,-0.8844,2.802666,-0.090143,0.7735350000000001,-0.62731,-1.364699,0.482887,0.219198,0.370401,-0.031164,0.112525
141,-0.144699,-0.920041,2.7951080000000004,-0.087351,0.7956270000000001,-0.599457,-2.022586,0.119577,0.00356,0.008584999999999999,-0.291293,0.291092
142,-0.144527,-0.967099,2.790346,-0.081761,0.8232430000000001,-0.561771,-2.53316,0.30755,0.324493,-0.105312,-0.341141,0.300983
143,-0.132411,-1.028045,2.791344,-0.06819,0.856291,-0.511973,-3.353795,0.671917,0.492414,-0.110765,-0.311964,-0.031514
144,-0.122635,-1.104898,2.791582,-0.054953,0.893418,-0.445852,-3.951494,0.31845,0.426735,0.062765,-0.18036,-0.25413
145,-0.141535,-1.184544,2.765995,-0.053141,0.926327,-0.372953,-4.029988,0.15551800000000002,-0.317087,0.262507,0.13228199999999998,-0.311587
146,-0.228453,-1.260171,2.664407,-0.069222,0.952142,-0.297713,-3.97574,0.692349,-1.411255,0.287239,0.538412,-0.231263
147,-0.388913,-1.315702,2.4790330000000003,-0.095682,0.967639,-0.233493,-2.978656,0.947146,-1.525326,-0.082587,0.712124,-0.053693
148,-0.499767,-1.344142,2.3531310000000003,-0.10769,0.974424,-0.197234,-1.289233,0.27218600000000004,-0.167769,-0.366874,0.690554,-0.029283
149,-0.489707,-1.359924,2.374118,-0.098454,0.977849,-0.184713,-0.293821,-0.875109,0.830896,-0.153896,0.132549,-0.13366199999999998
150,-0.432616,-1.37144,2.45093,-0.083027,0.980194,-0.179793,-0.208774,-0.7780630000000001,0.99694,-0.10638,-0.504181,-0.048768
151,-0.357325,-1.389834,2.532032,-0.06295,0.983671,-0.16860799999999998,-0.774764,0.143938,1.086877,-0.028251,-0.839674,0.13856400000000002
152,-0.280829,-1.4167809999999998,2.596031,-0.042517,0.988163,-0.147397,-1.295823,0.857824,0.7020350000000001,-0.12136199999999997,-0.551106,0.182309
153,-0.316726,-1.437257,2.556925,-0.041468,0.991097,-0.126521,-0.795126,-0.298947,-0.292841,-0.328313,0.212166,0.253245
154,-0.408481,-1.440233,2.474319,-0.051715,0.991489,-0.119481,0.015092,-0.371386,-0.4622770000000001,-0.422712,0.6179319999999999,0.414602
155,-0.367654,-1.42777,2.50221,-0.051233,0.989789,-0.13301400000000002,0.945697,1.369484,0.275861,0.122094,-0.05351,0.324497
156,-0.200983,-1.413427,2.616712,-0.031286,0.987643,-0.153566,0.79604,3.354117,0.665378,0.5676329999999999,0.13017,0.179261
157,-0.054671,-1.402379,2.69248,-0.00916,0.985851,-0.167372,0.419562,3.208065,0.486679,0.217381,0.346989,-0.063387
158,0.06366799999999999,-1.38915,2.7633970000000003,0.011494,0.983548,-0.180283,1.191097,2.056067,0.725349,0.213833,0.259464,-0.6518550000000001
159,0.126069,-1.354178,2.800487,0.027024,0.97663,-0.213223,1.269739,0.592832,0.278052,0.07130299999999999,0.6402979999999999,0.024609
160,0.133251,-1.364033,2.804925,0.027275,0.9787,-0.203474,-1.173963,-0.04095,-0.014875,0.114952,0.407896,0.496015
161,0.195359,-1.369128,2.866852,0.038883,0.979734,-0.196494,0.51852,0.327323,0.990989,0.526806,0.139742,0.4487060000000001
162,0.285229,-1.338768,2.9432080000000003,0.064703,0.973202,-0.220661,1.157559,0.600831,1.036763,0.5328609999999999,0.397175,-0.681133
163,0.29892,-1.326645,2.9637740000000004,0.071188,0.970343,-0.231014,0.28677600000000003,-0.656687,0.051664,0.239619,0.370584,-0.13509100000000002
164,0.268826,-1.322425,2.949599,0.065291,0.969314,-0.236996,0.270227,-0.8905379999999999,-0.061383000000000014,-0.011824,0.022492,0.249554
165,0.241393,-1.312422,2.945357,0.061081,0.966807,-0.248101,0.733517,-1.324477,0.16246300000000002,0.109528,-0.195383,0.055413
166,0.21395100000000006,-1.284203,2.947483,0.06002,0.959213,-0.276241,1.826138,-1.493456,0.446981,0.109444,-0.171844,-0.056126
167,0.176778,-1.228485,2.94485,0.059029999999999985,0.941981,-0.330434,3.14121,-2.008506,0.50276,0.081321,0.024495,-0.269282
168,0.114007,-1.1584139999999998,2.934477,0.045594,0.916169,-0.398191,3.746714,-2.9370830000000003,0.158871,-0.054185,-0.023423,0.108945
169,0.031788,-1.077715,2.918017,0.015044,0.8808790000000001,-0.473103,4.122033999999998,-3.741548,-0.120555,-0.044036,-0.235569,0.556248
170,-0.04404,-1.001599,2.910425,-0.023728,0.842334,-0.538434,3.605869,-2.996242,-0.37508,0.025223,-0.249514,0.83772
171,-0.093039,-0.934147,2.893863,-0.055232,0.804092,-0.591933,3.140666,-1.084884,-0.8337040000000001,-0.270543,0.032654,0.290283
172,-0.110865,-0.882381,2.8806,-0.07028999999999999,0.772254,-0.631414,2.124962,-0.132108,-0.590988,-0.174675,0.419336,0.162557
173,-0.124466,-0.8508959999999999,2.868555,-0.08185,0.751871,-0.654209,1.206084,-0.394314,-0.556478,-0.039839,0.616583,0.093723
174,-0.142759,-0.837815,2.863291,-0.095194,0.743183,-0.6622819999999999,0.223246,-0.827807,0.009779,0.113047,0.08559800000000001,0.368794
175,-0.15464,-0.845917,2.866518,-0.102125,0.748579,-0.655133,-0.692719,-0.575912,0.148337,0.072737,-0.14260699999999998,0.421155
176,-0.159058,-0.8725780000000001,2.859147,-0.101821,0.765989,-0.634739,-1.806927,0.49752,-0.12574000000000002,-0.04944,-0.313138,0.351582
177,-0.151643,-0.916656,2.842648,-0.091918,0.793572,-0.601494,-2.452874,1.271311,-0.198542,-0.089127,-0.17263,0.163079
178,-0.14418,-0.968876,2.82228,-0.081356,0.82425,-0.560351,-2.663134,1.03335,-0.181546,-0.061008000000000014,-0.087754,-0.005475
179,-0.144982,-1.025376,2.804012,-0.07495,0.854909,-0.513335,-3.021534,0.440826,-0.07967300000000001,-0.071397,-0.067983,-0.105699
180,-0.176993,-1.087293,2.768265,-0.081852,0.8853719999999999,-0.457621,-3.341585,-0.313374,-0.60437,0.07314,0.026661,-0.302129
181,-0.259156,-1.155192,2.691019,-0.10346500000000003,0.914873,-0.39026,-3.81409,-0.697825,-1.021648,0.143748,0.138487,-0.312163
182,-0.375434,-1.218624,2.578545,-0.12648,0.938626,-0.320912,-3.48918,-0.533983,-0.984337,0.194947,0.542957,-0.303234
183,-0.498467,-1.267074,2.457266,-0.142981,0.95423,-0.262682,-2.687059,-0.341596,-0.507895,0.146583,0.692056,-0.094069
184,-0.563179,-1.2993290000000002,2.395756,-0.143156,0.963379,-0.226733,-1.221221,-0.150133,0.4229060000000001,0.011748,0.368866,0.053408
185,-0.517213,-1.312971,2.435255,-0.126077,0.966947,-0.221628,0.081317,0.795666,0.932856,-0.07682,-0.185208,-0.086997
186,-0.411208,-1.32322,2.520164,-0.097952,0.969509,-0.224627,-0.239296,1.282123,1.303871,-0.112832,-0.45715,-0.313459
187,-0.328455,-1.348802,2.583757,-0.071025,0.97546,-0.208406,-1.273608,0.8385889999999999,0.96393,-0.155584,-0.569988,-0.01071
188,-0.322458,-1.379896,2.581686,-0.060129,0.981834,-0.179964,-1.559856,0.191975,0.145569,-0.214437,-0.316688,0.40967
189,-0.42155,-1.409255,2.474392,-0.065812,0.986981,-0.146759,-1.716235,0.5192760000000001,-0.582334,-0.478042,0.270771,0.708176
190,-0.520312,-1.426535,2.365781,-0.071471,0.989612,-0.124737,-0.57501,0.284033,-0.019654,-0.299973,-0.196888,0.473675
191,-0.433248,-1.41495,2.443059,-0.065163,0.987881,-0.140875,1.55543,0.8461620000000001,0.348089,0.297508,-0.200435,-0.027780000000000003
192,-0.30487,-1.395769,2.547826,-0.05227,0.984722,-0.166105,0.467697,1.339394,0.48941,0.611367,0.221135,-0.137484
193,-0.206461,-1.403408,2.616035,-0.034154000000000004,0.986023,-0.16307,-0.144474,1.925162,0.78669,0.409307,0.613952,0.292846
194,-0.061926,-1.392414,2.713043,-0.010981,0.984132,-0.177097,1.113536,2.5434080000000003,0.66543,0.34067800000000004,0.963179,0.104984
195,0.023633,-1.370093,2.778744,0.004711,0.979927,-0.199303,0.98295,0.006651000000000001,0.596198,0.286747,0.167901,-0.4261390000000001
196,0.040024,-1.347076,2.812831,0.008877,0.975079,-0.221681,1.029133,-1.247966,0.221046,0.076953,-0.118252,0.21315100000000006
197,0.017465,-1.348566,2.81217,0.003849,0.975408,-0.220372,-0.631117,-0.646505,-0.09897,0.046642,-0.102789,0.69521
198,-0.000262,-1.358161,2.783135,-5.5e-05,0.977478,-0.211037,-0.244148,1.125951,-0.393367,0.120249,0.13084400000000002,0.5221939999999999
199,-0.018949,-1.370502,2.75121,-0.00377,0.980008,-0.198922,-0.9005139999999999,0.058017999999999986,-0.225668,0.473893,0.425983,-0.336799
200,-0.034266000000000005,-1.387205,2.747539,-0.006254,0.983194,-0.182454,-0.675076,-0.7599640000000001,0.073921,0.508238,0.231787,0.190633
201,-0.050299,-1.392162,2.744046,-0.008934000000000001,0.984087,-0.17746099999999998,-0.003481,-0.584751,-0.102142,0.231803,0.07118,-0.25692600000000004
202,-0.070498,-1.3868969999999998,2.737924,-0.012881,0.983138,-0.182411,0.401767,-0.7814260000000001,-0.021079,0.192172,0.031159,-0.225533
203,-0.071791,-1.372302,2.751936,-0.014145,0.980365,-0.196686,0.977614,-0.6956060000000001,0.12918,0.175995,-0.07973,-0.027496
204,-0.060522,-1.34348,2.778585,-0.013631,0.974275,-0.224951,1.793852,-0.831957,0.219445,0.04511,-0.27292,-0.088312
205,-0.051849,-1.294006,2.811861,-0.014162,0.961938,-0.272902,2.877018,-1.396418,0.312124,-0.001539,-0.263283,-0.097871
206,-0.05355,-1.225399,2.845119,-0.018122,0.940941,-0.338085,3.823488,-1.840739,0.3161,-0.080877,-0.200264,-0.258945
207,-0.082356,-1.141738,2.865791,-0.034222,0.909358,-0.414604,3.861436,-2.734421,-0.002954,-0.014987,-0.212337,0.123192
208,-0.150085,-1.077868,2.875593,-0.070755,0.880951,-0.467888,2.856911,-4.4719050000000005,-0.192547,0.172394,-0.3246,0.373054
209,-0.235037,-1.027624,2.876997,-0.120364,0.856073,-0.502644,2.231767,-3.988427,-0.676096,0.344684,-0.375467,0.887043
210,-0.303917,-0.984578,2.861353,-0.165555,0.833039,-0.5278619999999999,1.7975279999999998,-1.941347,-1.003288,0.071973,-0.512818,0.676284
211,-0.330981,-0.957463,2.850745,-0.187052,0.817734,-0.5443560000000001,0.7727229999999999,-0.427992,-0.547709,-0.059072,-0.246506,0.548933
212,-0.333974,-0.95552,2.843566,-0.189201,0.8166140000000001,-0.545293,-0.471121,0.425149,0.032167,-0.13025699999999998,0.222922,0.466726
213,-0.329379,-0.982095,2.841341,-0.179609,0.8316629999999999,-0.5254310000000001,-1.626659,0.13550299999999998,0.47312,0.070096,0.269869,0.341197
214,-0.337327,-1.017601,2.835861,-0.17389200000000002,0.85085,-0.495798,-1.7168150000000002,-0.286833,0.406802,0.022021,0.28333600000000003,0.323496
215,-0.354688,-1.0529,2.82393,-0.171931,0.8688629999999999,-0.464239,-1.854526,-0.390407,0.320515,0.027979,0.228244,0.028844
216,-0.382094,-1.10076,2.803334,-0.168877,0.891552,-0.420257,-2.867966,-0.484297,0.4364020000000001,0.163262,0.16286099999999998,-0.132737
217,-0.438323,-1.169492,2.7513490000000003,-0.165787,0.920552,-0.353692,-3.910207,-0.319417,0.333839,0.307877,0.125529,-0.23198600000000005
218,-0.518358,-1.245038,2.657752,-0.158559,0.947408,-0.277986,-4.092198000000002,0.780269,0.145288,0.183156,0.537195,-0.612074
219,-0.6472680000000001,-1.302051,2.508652,-0.16011199999999998,0.964105,-0.211816,-3.200414,0.378005,-0.463263,-0.220228,0.625571,-0.767676
220,-0.804914,-1.334336,2.348101,-0.16885,0.972173,-0.162384,-2.114384,-0.19207,-0.30112300000000003,-0.321171,0.367365,-0.16508399999999998
221,-0.887998,-1.353409,2.263822,-0.167326,0.976464,-0.13608599999999998,-0.875296,-0.013279,0.265983,-0.252443,0.188514,-0.096397
222,-0.8992829999999999,-1.360167,2.2589740000000003,-0.163681,0.9779,-0.13008,0.048598,-0.5680189999999999,0.197304,-0.190735,-0.116205,0.052398
223,-0.8725959999999999,-1.361882,2.297264,-0.158867,0.978257,-0.133323,0.267916,-0.424896,0.445412,-0.036278,-0.440568,0.15045899999999998
224,-0.840195,-1.369268,2.33358,-0.149079,0.979762,-0.133575,-0.15717,0.048095,0.545454,0.02675,-0.8145399999999999,0.225372
225,-0.831886,-1.386885,2.329977,-0.135183,0.983136,-0.123164,-0.8977,0.8332620000000001,0.639688,0.024556,-1.031262,0.29630500000000004
226,-0.905456,-1.413645,2.235942,-0.123124,0.987677,-0.096615,-1.7224529999999998,1.068226,0.405026,-0.01213,-1.145804,0.5380060000000001
227,-1.023834,-1.427921,2.094511,-0.121616,0.989811,-0.074056,-0.756794,0.866358,-0.298337,-0.255947,-0.014911,0.248739
228,-1.041557,-1.42361,2.06563,-0.126592,0.989188,-0.074043,0.102949,0.454953,-0.19246,-0.12554400000000002,0.696802,-0.262322
229,-1.060829,-1.427719,2.035933,-0.124447,0.989782,-0.069605,-0.678629,0.532559,0.258112,0.493847,0.477793,0.164973
230,-1.1778,-1.450357,1.900311,-0.110989,0.992756,-0.046012,-1.493626,1.124341,0.8252959999999999,0.492398,-0.14311600000000002,0.550956
231,-1.339594,-1.476913,1.7132919999999998,-0.091252,0.995596,-0.021482,-1.073654,1.3632799999999998,0.914449,0.577381,0.033777,0.270032
232,-1.248185,-1.491344,1.755025,-0.075275,0.996845,-0.025164,0.591383,3.111081,0.616192,0.185138,0.746273,-0.660841
233,-1.127555,-1.48585,1.842946,-0.076646,0.996394,-0.036387,0.194006,0.133486,-0.598405,-0.177627,1.495183,-1.676839
234,-1.089278,-1.468298,1.891132,-0.090685,0.994752,-0.047387,0.915887,-0.664806,-0.591271,0.152117,0.072357,0.497323
235,-0.95336,-1.4521540000000002,2.031964,-0.09651,0.99297,-0.068527,1.139062,0.278668,-0.162564,0.5430590000000001,-0.47234,0.177383
236,-0.893453,-1.438433,2.082631,-0.102842,0.991253,-0.082713,0.084445,0.25405300000000003,-0.551254,0.548948,-0.450008,-0.191289
237,-1.049297,-1.433766,1.932188,-0.118444,0.990626,-0.068052,-0.959315,-0.5455899999999999,-0.806416,0.411428,-0.232173,0.233427
238,-1.222549,-1.429593,1.7572869999999998,-0.132287,0.990047,-0.048026,-1.050447,0.272035,-0.600865,0.428719,0.167698,-0.06337899999999999
239,-1.421123,-1.427958,1.555652,-0.140762,0.989816,-0.021227,-1.528556,-0.20674,-0.336536,0.659377,0.167105,-0.16575399999999998
240,-1.606239,-1.423702,1.374564,-0.146472,0.989201,0.005194,-0.984701,-0.206736,-0.276121,0.779895,0.137889,-0.003637
241,-1.644436,-1.417068,1.335869,-0.15270799999999998,0.988207,0.011266,0.056124,0.106263,-0.33120900000000003,0.770964,0.114408,-0.041661
242,-1.553006,-1.413963,1.424275,-0.156167,0.987727,-0.002779,1.096883,0.26981900000000003,-0.044275,0.5911489999999999,-0.031123,-0.12673800000000002
243,-1.314531,-1.410794,1.659668,-0.154117,0.987227,-0.040383,2.2519150000000003,0.14565899999999998,0.166914,0.5022310000000001,-0.056639,-0.237236
244,-1.037593,-1.399135,1.955034,-0.147107,0.985302,-0.086827,2.576727,-1.2515120000000002,0.5662159999999999,0.276303,-0.019192,-0.128261
245,-0.764579,-1.371281,2.265452,-0.137197,0.980163,-0.143031,3.404181,-1.663057,0.734893,0.07729,0.337724,0.219112
246,-0.5506260000000001,-1.324494,2.523941,-0.127571,0.969821,-0.207782,3.512331,-2.100948,0.923148,-0.179847,0.518476,-0.037991
247,-0.424229,-1.278552,2.705143,-0.118588,0.9576,-0.262564,2.919412,-2.565161,1.108677,-0.126621,0.616634,0.104681
248,-0.348756,-1.237768,2.8385740000000004,-0.111713,0.945057,-0.307226,2.56794,-2.563295,1.213041,-0.031399,0.8177,0.305822
249,-0.274075,-1.197649,2.965314,-0.098667,0.931185,-0.35094200000000003,2.645176,-2.013589,1.6722119999999998,0.076405,0.987776,0.101995
250,-0.192641,-1.15581,3.100164,-0.077189,0.915122,-0.395719,2.525636,-2.434,2.214572,0.183787,0.848672,0.071607
251,-0.142841,-1.119129,-3.058502,-0.062133,0.8997200000000001,-0.432021,2.077567,-3.592614,2.23536,0.35939,0.492964,0.164443
252,-0.131536,-1.0868719999999998,-2.960024,-0.061022,0.8851760000000001,-0.461238,1.774614,-3.765637,1.811518,0.130052,0.249468,0.496302
253,-0.130597,-1.062951,-2.884999,-0.063328,0.8737940000000001,-0.482155,1.147304,-2.89184,1.4887549999999998,-0.043758,0.27975500000000003,0.499016
254,-0.143024,-1.050194,-2.831852,-0.070898,0.8675200000000001,-0.492324,0.6030770000000001,-3.112971,1.05047,-0.263117,0.276447,0.232971
255,-0.178148,-1.050276,-2.793137,-0.088131,0.867561,-0.4894600000000001,-0.156073,-3.569107,0.959226,-0.126911,-0.18415,0.363316
256,-0.221604,-1.066669,-2.762591,-0.10617,0.875597,-0.4712310000000001,-0.952633,-3.3347900000000004,0.8614950000000001,-0.022446,-0.456361,0.437417
257,-0.263398,-1.095835,-2.746971,-0.119065,0.88931,-0.441532,-1.518045,-2.419812,0.576499,0.053788,-0.4920479999999999,0.37009
258,-0.307911,-1.134521,-2.755035,-0.128067,0.906332,-0.402693,-2.165961,-1.572767,0.301696,0.157486,-0.47228,0.184584
259,-0.356736,-1.183949,-2.78206,-0.13175,0.926103,-0.353518,-2.654153,-0.988403,0.310355,0.231389,-0.4545300000000001,-0.024336
260,-0.41093,-1.2339209999999998,-2.823689,-0.13203800000000002,0.943792,-0.303022,-2.468615,-0.653017,0.193717,0.388523,-0.455679,-0.216631
261,-0.474601,-1.269274,-2.881397,-0.135712,0.954886,-0.264151,-1.605392,-0.364468,-0.252481,0.39029,-0.008246,-0.287546
262,-0.53589,-1.280418,-2.933385,-0.14619400000000002,0.958136,-0.246178,-0.400969,-0.7696850000000001,-0.394168,0.32353200000000004,0.12323900000000003,-0.250023
263,-0.5627260000000001,-1.273798,-2.935732,-0.156127,0.956219,-0.247525,0.617143,-1.539518,-0.036762,0.123687,0.17216800000000002,-0.350756
264,-0.552087,-1.263593,-2.880698,-0.158595,0.953183,-0.257468,0.8586799999999999,-2.41773,0.658258,0.383754,-0.278745,-0.491998
265,-0.543957,-1.265386,-2.818924,-0.155612,0.953723,-0.257286,0.132905,-2.490691,0.885086,0.503879,-0.5201600000000001,-0.01255
266,-0.543371,-1.27114,-2.771545,-0.152621,0.955438,-0.252676,0.320689,-2.006781,0.6539739999999999,0.491763,-0.5617,0.485159
267,-0.5057159999999999,-1.258525,-2.710396,-0.148828,0.951638,-0.26876500000000003,1.2954629999999998,-0.483516,0.361865,0.391565,0.244162,0.897244
268,-0.47582,-1.2474610000000002,-2.680345,-0.145542,0.948181,-0.282437,0.105057,0.400922,-0.002233,0.063099,0.677246,1.097744
269,-0.491312,-1.2576379999999998,-2.711302,-0.14534,0.951365,-0.27162600000000003,-1.058342,0.6175689999999999,-0.158052,-0.32814,0.224157,0.774097
270,-0.5250739999999999,-1.285274,-2.753431,-0.141189,0.959515,-0.243715,-1.6476849999999998,0.415745,0.207695,-0.468476,0.480274,0.78232
271,-0.531543,-1.288142,-2.789103,-0.14136700000000002,0.960318,-0.240424,0.722653,1.438632,-0.835667,-0.4520770000000001,1.182275,0.6545479999999999
272,-0.512512,-1.260725,-2.785704,-0.149624,0.952312,-0.265923,0.991181,-0.032163,-0.091629,0.11456,0.28214,-0.080971
273,-0.485964,-1.2531709999999998,-2.742442,-0.145868,0.94998,-0.27615300000000004,0.619337,-1.386577,0.342276,0.542917,0.21718,-0.477783
274,-0.5437390000000001,-1.250546,-2.743302,-0.16286099999999998,0.949157,-0.269403,-0.329835,-3.493595,-0.190424,0.633671,-0.15103,-0.08656900000000001
275,-0.651295,-1.267467,-2.781152,-0.181076,0.954347,-0.237555,-1.445133,-3.248169,0.140098,0.681733,-0.042085,0.139624
276,-0.759441,-1.298013,-2.847237,-0.185495,0.963025,-0.195384,-1.7231759999999998,-1.757728,0.350958,0.400003,0.592258,0.30590300000000004
277,-0.8412270000000001,-1.325146,-2.898469,-0.181287,0.969979,-0.162096,-1.3240610000000002,-1.717539,0.610068,0.228131,0.426291,0.026446
278,-0.940581,-1.35192,-2.961304,-0.175422,0.976142,-0.12796,-1.475174,-1.930884,0.547329,0.15029,0.06374400000000001,0.022232
279,-1.076894,-1.37535,-3.064736,-0.170995,0.980961,-0.092066,-1.524035,-1.621987,0.331879,0.0007070000000000001,-0.066944,0.040842
280,-1.237393,-1.390582,3.08568,-0.16937,0.983805,-0.058658,-1.359247,-1.485364,0.122415,-0.097536,-0.071055,0.046009
281,-1.396798,-1.396856,2.956818,-0.170451,0.98491,-0.029961,-1.083083,-1.691239,-0.047375,-0.068593,-0.100923,0.01838
282,-1.548965,-1.395881,2.835306,-0.173983,0.984741,-0.003799,-1.046448,-1.530942,-0.205422,0.026781,-0.158386,0.06820599999999999
283,-1.696093,-1.390142,2.713798,-0.178265,0.983726,0.022454,-1.126384,-1.287731,-0.218042,0.119015,-0.231834,0.052528
284,-1.840713,-1.380694,2.590245,-0.182118,0.981985,0.050386,-1.264896,-1.070751,-0.28017600000000004,0.155187,-0.259283,0.025267
285,-1.969519,-1.364874,2.478187,-0.188431,0.978873,0.07938400000000001,-1.295402,-0.891057,-0.435512,0.184097,-0.221274,0.045952
286,-2.077062,-1.345983,2.385809,-0.194961,0.974836,0.108099,-1.311558,-0.8677950000000001,-0.377971,0.244598,-0.153318,0.026971
287,-2.173947,-1.326164,2.304753,-0.199464,0.970226,0.13738499999999998,-1.325768,-0.913672,-0.34810100000000005,0.27115,-0.146069,-0.008173999999999999
288,-2.254348,-1.304743,2.239477,-0.203855,0.964816,0.166051,-1.276155,-0.810449,-0.36391,0.297621,-0.155627,-0.054494000000000015
289,-2.3152,-1.283968,2.190545,-0.208079,0.959146,0.191682,-1.118631,-0.624703,-0.33100100000000005,0.360789,-0.12536,-0.170182
290,-2.361067,-1.265733,2.154682,-0.211345,0.953828,0.213414,-0.951086,-0.563708,-0.278634,0.4259600000000001,-0.02237,-0.26482100000000003
291,-2.394641,-1.250735,2.1317060000000003,-0.213758,0.949216,0.230861,-0.655853,-0.60107,-0.24875,0.388258,0.128024,-0.28422
292,-2.414455,-1.241456,2.124139,-0.214987,0.946256,0.24162,-0.294512,-0.633393,-0.204524,0.367835,0.161654,-0.291318
293,-2.424979,-1.237958,2.128054,-0.214606,0.945119,0.246364,0.035314,-0.774341,-0.141151,0.33731700000000003,0.153987,-0.332347
294,-2.426307,-1.240026,2.144118,-0.212996,0.945792,0.245172,0.375384,-0.824566,-0.130166,0.34175,0.131707,-0.445642
295,-2.410752,-1.247892,2.176419,-0.211811,0.948318,0.236282,0.832634,-0.702523,-0.14422,0.339924,0.177308,-0.456711
296,-2.3613060000000003,-1.264457,2.2431080000000003,-0.21215,0.953444,0.21433,1.640359,-0.726468,-0.18448,0.26168,0.430421,-0.166631
297,-2.261565,-1.2908110000000002,2.362833,-0.212992,0.961059,0.176066,2.45891,-0.679221,-0.188437,0.171763,0.619599,0.32626900000000003
298,-2.087224,-1.323332,2.552719,-0.21300300000000005,0.969537,0.120949,3.245696,-0.340935,0.046293,0.134985,0.291877,-0.085991
299,-1.830579,-1.353367,2.819334,-0.20848200000000006,0.976455,0.055412,3.382566,-0.052542,0.26800100000000004,0.191072,0.203873,-0.442909
300,-1.5319459999999998,-1.366457,3.129074,-0.202767,0.979195,-0.007881,3.256171,-0.379232,0.28997,0.261757,0.404289,-0.251548
301,-1.250711,-1.360243,-2.849858,-0.198385,0.977915,-0.065762,2.951085,-1.138545,0.23112800000000006,0.271231,0.4906970000000001,-0.03693
302,-1.08413,-1.345368,-2.6458,-0.197572,0.974699,-0.104538,1.88255,-1.960485,0.245013,0.212037,0.397616,0.38475
303,-0.997958,-1.3383120000000002,-2.512229,-0.193617,0.973097,-0.124879,1.4022370000000002,-2.173112,0.553852,0.355925,0.316439,0.375596
304,-0.87955,-1.33112,-2.355488,-0.182896,0.971415,-0.151335,1.945049,-1.317072,0.992381,0.556584,0.211111,0.129332
305,-0.693712,-1.3224049999999998,-2.148878,-0.157192,0.969309,-0.189025,1.978304,-0.552042,1.721228,0.534191,0.212866,-0.062593
306,-0.508264,-1.317158,-1.933977,-0.122117,0.968006,-0.219208,1.616839,-1.728611,2.160319,0.122437,0.07481,-0.36029
307,-0.36671,-1.307557,-1.7294060000000002,-0.093297,0.965552,-0.242909,1.477391,-3.329199,2.150713,0.007634,0.061547,-0.134472
308,-0.28647399999999995,-1.309402,-1.577045,-0.073024,0.96603,-0.247896,0.729449,-3.017046,1.994471,-0.225712,-0.297299,0.471041
309,-0.189577,-1.299387,-1.413106,-0.05052,0.963394,-0.263286,1.218564,-3.17948,1.964981,-0.055651,-0.208374,0.334438
310,-0.111533,-1.279988,-1.268073,-0.031913,0.958012,-0.284945,1.199216,-2.939973,1.7605080000000002,-0.000771,-0.136143,0.278415
311,-0.057334,-1.262124,-1.154861,-0.017408,0.952738,-0.303295,0.93838,-2.601393,1.498674,-0.011461,-0.138071,0.218258
312,-0.021767,-1.248632,-1.065257,-0.006891,0.948552,-0.316546,0.550898,-2.392488,1.274578,-0.074545,-0.168721,0.300966
313,-0.001111,-1.245823,-0.99832,-0.000355,0.947659,-0.319283,-0.103804,-1.949897,0.917993,-0.094967,-0.198163,0.420709
314,0.006458,-1.256338,-0.956251,0.001998,0.950964,-0.309295,-0.761293,-1.453882,0.5228619999999999,-0.174849,-0.248129,0.318633
315,-0.002437,-1.276489,-0.936133,-0.0007070000000000001,0.957003,-0.290076,-1.12641,-1.3936309999999998,0.158108,-0.162379,-0.243624,0.191428
316,-0.034243,-1.303498,-0.940041,-0.009043,0.964488,-0.263972,-1.498633,-1.395521,-0.111546,0.041788,-0.202525,0.07627300000000001
317,-0.08128099999999999,-1.338829,-0.961672,-0.018665,0.973216,-0.229134,-1.94777,-1.225351,-0.186472,0.131397,-0.173762,0.02546
318,-0.147386,-1.380789,-1.009881,-0.027736,0.982003,-0.186819,-2.221422,-0.737137,-0.294763,0.196071,-0.16025599999999998,-0.047602
319,-0.249073,-1.419564,-1.106443,-0.037138,0.988586,-0.146007,-1.896289,-0.086424,-0.533675,0.162107,-0.166534,-0.428334
320,-0.407239,-1.436712,-1.264824,-0.052949,0.991024,-0.122751,-0.5050979999999999,-0.250543,-0.923263,0.123414,-0.127697,-0.7092649999999999
321,-0.478968,-1.418612,-1.331404,-0.069866,0.988442,-0.13453900000000002,1.153542,-0.063532,-0.6437930000000001,0.269573,0.369834,0.166872
322,-0.429322,-1.389425,-1.29671,-0.07508300000000001,0.983597,-0.164009,1.3089309999999998,1.327084,-0.353933,0.117335,1.110107,0.449928
323,-0.412506,-1.376666,-1.309102,-0.07733999999999999,0.981216,-0.176731,0.224417,1.124629,-0.199947,-0.094275,0.8754280000000001,0.25861
324,-0.382912,-1.381328,-1.2800200000000002,-0.070367,0.982105,-0.174697,-0.34676,-0.549032,0.588692,-0.295371,-0.387836,-0.108872
325,-0.380661,-1.393948,-1.254088,-0.065363,0.984403,-0.16333499999999998,-0.519257,-1.576977,0.19463,-0.05989600000000001,-0.427228,-0.558131
326,-0.488347,-1.398132,-1.325295,-0.080606,0.985131,-0.151725,-0.416636,-1.803475,-0.793536,0.219492,-0.161339,-0.025414
327,-0.63825,-1.400093,-1.449768,-0.101211,0.985465,-0.136434,-0.883677,-1.256487,-0.780408,0.5131220000000001,0.142769,0.388692
328,-0.7963779999999999,-1.410874,-1.58094,-0.11383,0.98724,-0.111358,-1.092316,-1.580634,-0.258021,0.5591729999999999,0.37238,0.540771
329,-0.90467,-1.423477,-1.6597849999999998,-0.115407,0.989168,-0.090706,-0.805606,-1.351535,0.275663,0.439794,0.402205,0.3648
330,-1.00571,-1.445051,-1.741564,-0.105918,0.992104,-0.06715800000000001,-1.268068,-0.7945180000000001,0.706485,0.20391,0.167075,0.105168
331,-1.1797799999999998,-1.47251,-1.903069,-0.090721,0.995174,-0.037399,-1.467423,-0.675917,0.7903979999999999,0.005318,-0.036968,-0.092422
332,-1.464446,-1.491533,-2.171231,-0.078733,0.99686,-0.008405,-1.303207,-1.020329,0.464042,-0.076022,-0.080402,-0.110049
333,-1.78975,-1.493285,-2.471779,-0.075585,0.996997,0.016819,-1.085189,-1.41969,-0.019964,-0.244254,-0.15228599999999998,0.060329
334,-2.0221150000000003,-1.483042,-2.675176,-0.07886699999999999,0.996152,0.038225,-0.889932,-1.451231,-0.293093,-0.193014,-0.177549,0.077818
335,-2.160527,-1.467044,-2.788859,-0.086073,0.994623,0.057597,-0.8972180000000001,-1.130838,-0.4890390000000001,-0.050142,-0.126443,-0.056605
336,-2.26873,-1.446272,-2.880952,-0.095161,0.992257,0.079817,-1.131775,-0.6388550000000001,-0.5083989999999999,0.123923,-0.082513,-0.261443
337,-2.354711,-1.423115,-2.961077,-0.104202,0.989115,0.103893,-1.193778,-0.149845,-0.46673,0.162307,-0.052912,-0.344448
338,-2.4149830000000003,-1.40076,-3.022294,-0.112418,0.985579,0.126478,-1.104768,0.042296,-0.375556,0.23928,0.029375,-0.391569
339,-2.464394,-1.381381,-3.072139,-0.117982,0.982114,0.14673699999999998,-0.959768,-0.05685800000000001,-0.214182,0.365113,0.094592,-0.305596
340,-2.502055,-1.368567,-3.108795,-0.119875,0.979621,0.161159,-0.558376,-0.10355,-0.074586,0.439317,0.119729,-0.266842
341,-2.514578,-1.363779,-3.117652,-0.120597,0.978648,0.166444,-0.055565,-0.252393,-0.051654999999999986,0.39846,0.07665,-0.105577
342,-2.509934,-1.368516,-3.10807,-0.11863,0.979611,0.162139,0.422895,-0.181356,0.150285,0.339654,0.016056,-0.214324
343,-2.487112,-1.384514,-3.084808,-0.112744,0.9827,0.14693599999999998,1.028017,0.07878500000000001,0.371027,0.177777,0.228848,-0.297327
344,-2.398155,-1.4147299999999998,-2.996143,-0.105201,0.987846,0.114422,2.083986,0.052613,0.406211,-0.006692,0.327705,0.043125
345,-2.112003,-1.462181,-2.712191,-0.09291,0.994107,0.055846000000000014,3.4018,0.52249,0.8388979999999999,-0.030182,0.232242,0.086916
346,-1.249644,-1.496954,-1.872077,-0.070003,0.997275,-0.023288,3.973695,1.47841,1.315958,-0.104451,0.29435100000000003,-0.292356
347,-0.413192,-1.456727,-1.051085,-0.045704,0.993501,-0.104243,4.126938,0.324548,0.959584,-0.4321100000000001,0.349501,-0.484471
348,-0.21680500000000005,-1.381101,-0.815037,-0.040561,0.982062,-0.184145,3.921438,-3.2824910000000003,0.343202,-0.338498,0.40159,0.149798
349,-0.24506,-1.318252,-0.744287,-0.060622,0.96828,-0.242403,2.869688,-5.334119,-0.099486,-0.22014,0.416623,0.731951
350,-0.293791,-1.261927,-0.710778,-0.088028,0.952678,-0.290957,2.968712,-2.80227,-0.373367,-0.03891,0.347584,0.549196
351,-0.260064,-1.209817,-0.656118,-0.09082,0.935551,-0.341314,2.442696,-0.140245,0.6386310000000001,0.288117,0.223949,-0.121653
352,-0.181467,-1.177429,-0.561742,-0.069175,0.923624,-0.377007,1.6853619999999998,-0.8465229999999999,1.560395,0.361076,0.14719300000000002,0.071129
353,-0.128698,-1.155359,-0.483591,-0.051798,0.91494,-0.400252,1.142806,-0.8697739999999999,1.1859620000000002,0.210291,-0.002571,0.288161
354,-0.092983,-1.139267,-0.428819,-0.038835,0.908327,-0.416454,0.788238,-0.672797,0.985612,-0.13561900000000002,-0.474505,0.240001
355,-0.06565800000000001,-1.1318,-0.3809,-0.027887,0.905179,-0.424115,0.237807,-0.921099,0.953243,-0.10372,-0.492596,0.191312
356,-0.049362,-1.135975,-0.341239,-0.020785,0.906945,-0.420735,-0.396626,-1.00345,0.785479,-0.037565,-0.488916,0.281667
357,-0.041403,-1.15089,-0.311158,-0.016874,0.913127,-0.407326,-0.875324,-0.895497,0.577967,-0.0008869999999999998,-0.602168,0.443535
358,-0.03054,-1.172758,-0.287326,-0.011836,0.921823,-0.38743,-1.1989459999999998,-0.326318,0.5119520000000001,-0.001531,-0.701272,0.408442
359,-0.003334,-1.203928,-0.255716,-0.001196,0.933455,-0.358692,-1.802239,-0.022393,0.687878,-0.001032,-0.709929,0.36179
360,0.040086,-1.248406,-0.213306,0.012697,0.948481,-0.31658000000000003,-2.49393,0.32749,0.636664,-0.030886,-0.700175,0.332815
361,0.098736,-1.303179,-0.164888,0.026067,0.964404,-0.263146,-2.912527,0.756927,0.434501,-0.02419,-0.738558,0.166772
362,0.165947,-1.361614,-0.115376,0.034303,0.978201,-0.204807,-2.943163,1.089072,-0.01586,0.087188,-0.634634,0.08997000000000001
363,0.192901,-1.417533,-0.116606,0.029267,0.988278,-0.149832,-2.580954,1.591722,-0.82155,0.048584,-0.252896,-0.14086300000000002
364,0.07795,-1.464139,-0.263292,0.00829,0.994318,-0.106132,-1.842012,1.358333,-1.4377950000000002,-0.093876,0.069373,-0.410225
365,-0.175478,-1.48664,-0.532013,-0.014674,0.996461,-0.08276599999999999,-0.79543,0.169228,-0.949329,-0.289921,0.395171,-0.705976
366,-0.322753,-1.492489,-0.6659999999999999,-0.024812,0.996936,-0.074188,-0.315295,-1.025172,-0.245829,-0.018736000000000003,0.536146,-0.656692
367,-0.398893,-1.496677,-0.718821,-0.028762,0.997254,-0.068239,-0.209793,-1.077525,-0.032449,0.125701,0.182403,-0.14851199999999998
368,-0.384929,-1.499083,-0.69828,-0.026905,0.99743,-0.06641,0.005721,0.12235,0.21962,-0.062496,0.019614,0.097065
369,-0.274776,-1.501634,-0.604082,-0.018751,0.997609,-0.06651499999999999,-0.109803,1.187295,0.40225,-0.220537,0.103419,0.16794
370,-0.15484,-1.510921,-0.5107119999999999,-0.009229,0.998208,-0.059124,-0.5702699999999999,1.291132,0.408515,-0.464862,0.106498,0.097637
371,-0.048961000000000005,-1.527697,-0.425786,-0.002109,0.999071,-0.043035,-0.891803,0.903566,0.106595,-0.516599,0.26479899999999995,0.099371
372,-0.060031,-1.543705,-0.45052,-0.001625,0.999633,-0.027039,-0.667565,0.5392520000000001,0.175927,-0.5299,0.102311,0.26313800000000004
373,0.594916,-1.553856,0.205991,0.009494,0.999857,-0.01403,-0.871092,-0.577354,0.6673180000000001,-0.032947000000000004,-0.618417,0.10366
374,1.840892,-1.545782,1.472299,0.024106,0.999687,0.006673999999999999,-0.934782,-0.888561,0.759139,0.188952,-0.432182,0.0048920000000000005
375,1.95191,-1.535022,1.575712,0.033199,0.99936,0.013303,0.144705,1.2569629999999998,0.341982,0.250172,0.509414,-0.091062
376,1.617738,-1.524338,1.192896,0.04639,0.998921,0.002179,0.805005,2.812755,0.978056,0.526746,0.608074,-0.205274
377,1.447228,-1.498701,0.973025,0.071484,0.997402,-0.008878,0.562555,2.176133,1.351056,0.237568,1.289585,-0.996218
378,1.426911,-1.478107,0.934728,0.0916,0.995707,-0.013272,0.232825,0.211837,0.820364,0.092131,0.304677,-0.320514
379,1.3854,-1.463003,0.899402,0.10574,0.994196,-0.019832,0.442374,-0.544667,0.6785869999999999,-0.039426,-0.395701,0.458751
380,1.311288,-1.452923,0.8426290000000001,0.113662,0.993061,-0.030177,0.177701,-1.050983,0.187073,-0.139587,-0.388615,0.287638
381,1.311968,-1.457778,0.8559969999999999,0.109021,0.99362,-0.028865,-0.192018,-0.108804,-0.40958,-0.190381,-0.17462,0.109462
382,1.325812,-1.471202,0.860174,0.096461,0.995045,-0.024116,-0.281645,0.5128119999999999,-0.7378779999999999,0.135915,0.370312,-0.347008
383,1.4511969999999998,-1.48743,0.984332,0.082675,0.996527,-0.009935,-0.8931600000000001,-0.07588400000000001,-0.574753,0.27612,0.367426,-0.125288
384,1.679541,-1.488821,1.210397,0.0814,0.996642,0.008887,-0.900517,0.312786,0.268593,0.6204729999999999,0.251207,0.007669
385,1.782485,-1.477581,1.306486,0.091004,0.995659,0.019557,-0.154514,0.32113600000000003,0.463937,0.491608,0.119927,-0.398555
386,1.6746419999999995,-1.474387,1.199333,0.095742,0.995356,0.009978,0.804291,-0.329589,0.126432,0.198753,0.085424,-0.4928270000000001
387,1.407248,-1.472723,0.946818,0.096608,0.995195,-0.015943000000000002,1.483823,-1.113649,0.0745,-0.027929,0.065535,-0.459979
388,1.039679,-1.455006,0.610585,0.099616,0.993304,-0.058516,2.247793,-1.87017,0.25492600000000004,-0.230247,-0.142184,-0.120179
389,0.7060810000000001,-1.416031,0.313361,0.10002,0.988048,-0.117293,3.114177,-1.999376,0.113728,-0.257704,-0.395015,-0.183915
390,0.432463,-1.353062,0.076613,0.090535,0.976389,-0.19613,4.202939,-2.094034,-0.33467600000000003,-0.257847,-0.420268,-0.153937
391,0.243663,-1.277221,-0.072655,0.069815,0.957215,-0.280828,4.038481,-2.175408,-0.6209359999999999,-0.159246,-0.425386,0.341192
392,0.118092,-1.207957,-0.14281300000000002,0.041817,0.934893,-0.352458,3.399711,-3.344681,-0.433756,0.031761000000000005,-0.414523,0.374323
393,0.015263,-1.146376,-0.186175,0.006285,0.911278,-0.411745,2.951023,-2.832685,-0.743057,0.157335,-0.312797,0.578477
394,-0.042956,-1.093078,-0.21566,-0.019743,0.8880459999999999,-0.45933,2.4871950000000003,-0.7139439999999999,-0.5845060000000001,0.183928,-0.208648,0.6709390000000001
395,-0.044744,-1.052607,-0.220878,-0.022155,0.868717,-0.494812,1.606115,0.376578,-0.00774,0.012862,0.169796,0.15329
396,-0.0394,-1.037774,-0.213684,-0.020015,0.861275,-0.507744,0.304371,-0.382512,0.208466,0.000667,0.366951,-0.069816
397,-0.044975,-1.041783,-0.203931,-0.02269,0.8633059999999999,-0.504171,-0.448862,-0.7818069999999999,0.282765,-0.074371,0.051779,0.129415
398,-0.043743,-1.058445,-0.192391,-0.021437,0.8715940000000001,-0.489759,-1.066159,-0.124857,0.366274,-0.17294500000000002,-0.099347,0.4864020000000001
399,-0.024002,-1.091604,-0.178129,-0.011065,0.887368,-0.46093,-2.023152,0.5911390000000001,0.364013,-0.21417,-0.062325,0.29904899999999995
400,-0.000772,-1.1448200000000002,-0.170413,-0.000319,0.910636,-0.41321,-3.005239,0.932193,0.108888,-0.289796,-0.02912,0.091722
401,0.019543,-1.212868,-0.17246,0.006846,0.936625,-0.350267,-3.5693269999999995,1.144277,-0.224336,-0.322489,0.164511,-0.21952600000000005
402,0.0114,-1.294116,-0.19772,0.003114,0.961968,-0.273146,-4.365735,0.437947,-0.58578,-0.12548900000000002,0.10988599999999997,-0.719179
403,-0.063898,-1.383592,-0.270999,-0.011884,0.982528,-0.185733,-4.357543,-0.570013,-0.806621,-0.038897,0.00116,-0.827909
404,-0.243101,-1.4515280000000002,-0.436308,-0.028642,0.992896,-0.115487,-2.965778,-0.700405,-0.574542,0.186463,-0.269614,-0.34629
405,-0.422785,-1.490955,-0.611325,-0.032724,0.996814,-0.072733,-1.698221,-0.133903,-0.019485,0.239542,0.069866,-0.272192
406,-0.596671,-1.5087620000000002,-0.790461,-0.034835000000000005,0.998076,-0.051284,-0.747979,0.567611,-0.184662,0.121307,0.228868,-0.136354
407,-0.613632,-1.516777,-0.831765,-0.031092,0.998541,-0.044143,-0.225394,1.625351,0.446816,-0.325643,-0.089896,-0.033097
408,-0.22058200000000006,-1.5232139999999998,-0.476397,-0.010407,0.998868,-0.046414,0.189798,1.854519,1.1181290000000002,-0.168456,-0.549604,-0.275165
409,0.26266,-1.5205110000000002,-0.019729,0.013050999999999998,0.998736,-0.048541,-0.014818,0.973113,1.1349209999999998,-0.23113000000000006,-0.8358030000000001,-0.354627
410,0.68008,-1.516555,0.386512,0.034093,0.998529,-0.042153,-0.467309,0.434627,0.858986,-0.191778,-0.459223,-0.233787
411,0.964237,-1.517344,0.672797,0.043895,0.998572,-0.030455,-0.671194,-0.19606,0.248415,-0.079311,0.258935,0.281767
412,1.3418709999999998,-1.528872,1.059859,0.040819,0.999121,-0.009511,-1.315392,-0.5671149999999999,-0.173284,-0.153566,0.324975,0.226384
413,1.687464,-1.525824,1.403331,0.044651,0.998989,0.005233,-0.183222,0.555701,0.438867,0.016201,0.614643,0.683503
414,1.548477,-1.509847,1.212947,0.060897,0.998143,-0.001359,0.67623,3.796607,0.940645,0.4849100000000001,0.864604,0.458253
415,1.52572,-1.491466,1.105263,0.079167,0.996855,-0.003571,0.389905,3.879895,0.8733770000000001,0.229763,0.282717,-1.011078
416,1.472236,-1.483297,1.030798,0.086962,0.996174,-0.008598999999999999,0.220392,-0.462588,0.059498,-0.191043,0.955303,-0.765312
417,1.466736,-1.483026,1.042326,0.087184,0.996151,-0.009105,-0.234024,-0.801303,0.176399,0.201512,0.546269,0.359874
418,1.4154129999999998,-1.469006,1.012736,0.10039,0.994824,-0.015726,0.7580899999999999,-1.2976530000000002,0.8964690000000001,0.442212,-0.244626,0.120218
419,1.256421,-1.442508,0.8734219999999999,0.121667,0.991782,-0.039561,0.948267,-0.693409,1.205739,0.408592,-0.68357,-0.310735
420,1.161262,-1.412787,0.781675,0.144341,0.987542,-0.062655,1.452856,-0.214897,0.984324,-0.07962799999999999,-0.177087,-1.076383
421,1.014753,-1.3948200000000002,0.648828,0.148695,0.984556,-0.092407,1.075004,-0.915281,-0.160415,-0.057661,0.322756,0.286605
422,0.8917209999999999,-1.392663,0.535651,0.137883,0.984176,-0.11129,0.992586,-0.385167,-0.522729,0.101939,0.060273,0.120873
423,0.7635149999999999,-1.377429,0.406578,0.132875,0.981363,-0.138822,1.629589,0.064671,-0.083021,0.202269,-0.214273,0.02725
424,0.632562,-1.3420219999999998,0.27774,0.134077,0.973945,-0.182905,2.516489,-0.581721,0.155806,0.099413,-0.443367,0.297574
425,0.503302,-1.291187,0.161072,0.13311099999999998,0.961163,-0.24175700000000006,3.371197,-0.814702,0.13536900000000002,-0.081811,-0.4426850000000001,0.08707899999999999
426,0.375034,-1.215228,0.041538,0.127519,0.937449,-0.323927,4.436579,-0.835987,-0.259881,-0.174898,-0.278773,-0.051195
427,0.25513800000000003,-1.148621,-0.03702,0.103411,0.9122,-0.396481,2.91462,-3.196273,-0.363628,-0.274004,-0.075179,0.677762
428,0.163368,-1.1048639999999998,-0.08496000000000001,0.073068,0.8934030000000001,-0.443274,2.212632,-1.62546,-0.702761,-0.189783,-0.12236099999999997,0.7599239999999999
429,0.103346,-1.068049,-0.137295,0.049707,0.8762620000000001,-0.479264,1.6916490000000002,-0.407747,-1.0754290000000002,-0.176599,0.077305,0.196213
430,0.063173,-1.051257,-0.179028,0.031343,0.8680479999999999,-0.49549,0.467303,-0.04342,-0.814188,-0.047945,0.032587,0.332496
431,0.044819,-1.056606,-0.203789,0.022036,0.870691,-0.491336,-0.642061,0.267241,-0.552074,-0.0051600000000000005,-0.004511,0.349735
432,0.032227,-1.083824,-0.227824,0.015078,0.883754,-0.467709,-1.760431,0.522124,-0.71831,0.001523,-0.04893,0.32011100000000003
433,0.014852,-1.132881,-0.261448,0.006298,0.905638,-0.4240060000000001,-2.805973,0.678438,-0.806998,-0.20657,-0.200163,-0.06424500000000001
434,-0.00072,-1.200184,-0.289941,-0.000261,0.932106,-0.362187,-3.675204,0.402993,-0.435634,-0.203124,-0.109153,-0.260265
435,-0.019467,-1.281487,-0.317071,-0.005553,0.958441,-0.285236,-4.283631,0.358153,-0.416326,-0.10727,-0.048102,-0.27991900000000003
436,-0.06233,-1.370957,-0.370499,-0.012365,0.980099,-0.198126,-4.535595,0.511544,-0.462079,0.007864,0.225254,-0.391046
437,-0.13583399999999998,-1.453725,-0.450076,-0.015816999999999998,0.993155,-0.115728,-3.850166,0.06335199999999999,-0.063612,0.191766,0.23887,-0.6221720000000001
438,-0.260961,-1.514149,-0.573526,-0.014608,0.998396,-0.054701,-2.522624,-0.17840799999999998,0.10300000000000001,0.211904,0.316607,-0.450258
439,-0.456548,-1.542535,-0.7682260000000001,-0.012457,0.999601,-0.025363,-0.880242,0.237391,0.191919,-0.116632,0.233676,-0.016339
440,0.005901,-1.545188,-0.323969,0.000151,0.999672,-0.025604,0.5621649999999999,1.4098540000000002,0.906587,-0.418715,-0.171074,0.025543
441,0.546048,-1.520046,0.180066,0.026344,0.998712,-0.043352,0.781579,1.822558,1.4043139999999998,-0.236549,-0.521173,-0.476973
442,0.946359,-1.501663,0.5553779999999999,0.056042,0.997611,-0.040386,-0.5569029999999999,1.087366,1.270924,-0.062085,-0.703086,-0.534154
443,1.250913,-1.496785,0.8406030000000001,0.07019299999999999,0.997262,-0.023252,-0.794725,0.8683209999999999,0.312417,0.008496,-0.567163,0.184309
444,1.346493,-1.50385,0.938317,0.06522,0.99776,-0.01488,-0.363916,-0.7022619999999999,-0.500819,-0.477421,0.425275,0.402331
445,1.31241,-1.515259,0.911274,0.053666,0.998458,-0.014184,0.530754,0.15426700000000002,-0.489258,-0.548722,0.608536,0.5916520000000001
446,0.992163,-1.504042,0.571612,0.055846000000000014,0.997773,-0.03648,1.39582,1.719048,0.651367,0.074632,0.08699,0.4644430000000001
447,0.941127,-1.473171,0.464541,0.078778,0.995238,-0.05739800000000001,0.969029,3.193687,0.946667,0.611545,0.370866,-0.6957300000000001
448,1.097931,-1.462133,0.5841029999999999,0.096549,0.994102,-0.049392,-0.826355,1.170202,0.770077,0.371621,0.062462,-0.8672030000000001
449,1.181706,-1.449628,0.64682,0.111837,0.992668,-0.045852,0.495128,1.020967,0.714337,0.212839,0.5534899999999999,-0.431412
450,1.256651,-1.440269,0.723118,0.123787,0.991493,-0.040219,-0.78598,-0.905598,0.629877,0.286689,0.485679,0.030713
451,1.225658,-1.423598,0.725988,0.138018,0.989186,-0.049622,0.912924,-1.82941,0.80957,0.420438,0.240917,0.119644
452,1.157061,-1.404705,0.680107,0.151379,0.986239,-0.066468,0.5466439999999999,-0.597268,0.6900649999999999,0.33513200000000004,-0.413301,-0.139572
453,1.095754,-1.388025,0.616139,0.16163,0.983344,-0.083131,1.115932,0.161628,0.358716,-0.254388,0.105493,-0.534103
454,0.9713,-1.373807,0.495935,0.161589,0.98066,-0.110429,1.435027,-0.575623,-0.163676,-0.193189,0.287208,-0.29820100000000005
455,0.807079,-1.355565,0.347845,0.154258,0.976927,-0.14770999999999998,1.980849,-1.194123,-0.210346,0.053582000000000005,-0.113356,0.024663
456,0.647948,-1.319774,0.21671,0.149919,0.968659,-0.198051,2.567672,-1.724073,0.206766,0.058348,-0.408051,0.146202
457,0.509159,-1.267294,0.109185,0.145679,0.954296,-0.260955,3.257426,-1.692031,0.120744,-0.032871,-0.393596,0.088607
458,0.37617,-1.203879,0.007253,0.131787,0.933438,-0.333656,3.660002,-2.047484,-0.315027,-0.06336599999999999,-0.282513,0.025123
459,0.262148,-1.140593,-0.067857,0.108082,0.908881,-0.402807,3.316763,-2.373766,-0.472967,-0.193532,-0.032583999999999995,0.28655
460,0.160898,-1.084486,-0.12648900000000002,0.074874,0.8840629999999999,-0.4613310000000001,2.735282,-2.434478,-0.769644,-0.139572,0.069672,0.435132
461,0.085006,-1.043996,-0.171823,0.042687,0.8644200000000001,-0.500955,1.82115,-1.295343,-0.865083,-0.123772,0.154821,0.437966
462,0.04536,-1.019169,-0.20567600000000005,0.023764,0.8516729999999999,-0.5235350000000001,0.956645,-0.254344,-0.704745,-0.102301,0.20776,0.093054
463,0.020268,-1.011802,-0.226045,0.010748,0.8477889999999999,-0.530225,0.041679,-0.568763,-0.404153,-0.085135,0.095418,0.089612
464,0.000153,-1.024831,-0.236257,8e-05,0.854627,-0.519243,-1.065988,-0.447355,-0.234721,-0.145542,0.047763,0.33181900000000003
465,-0.015272,-1.056554,-0.24672600000000006,-0.007511,0.8706659999999999,-0.491818,-1.859029,-0.307085,-0.259668,-0.16784300000000002,-0.145232,0.157772
466,-0.028974,-1.102663,-0.25773,-0.013072,0.8924120000000001,-0.451032,-2.581854,-0.07599,-0.148577,-0.184408,-0.287294,0.024732
467,-0.027414,-1.162239,-0.25961,-0.01089,0.917695,-0.397137,-3.230356,0.276535,0.165838,-0.181462,-0.381333,-0.113453
468,-0.012528,-1.237543,-0.251649,-0.004098,0.944983,-0.327093,-4.0726260000000005,0.417901,0.175797,-0.048728,-0.31832,-0.240396
469,-0.013923,-1.325674,-0.265167,-0.003379,0.970108,-0.24265100000000006,-4.541363,0.742367,-0.371618,0.062384,-0.142166,-0.280283
470,-0.096201,-1.413747,-0.367157,-0.015022999999999996,0.987693,-0.155681,-4.267322,0.8406899999999999,-0.954147,0.086221,0.027428,-0.391926
471,-0.35393800000000003,-1.480026,-0.634894,-0.031418,0.995883,-0.08502799999999999,-3.058012,-0.002811,-0.720292,-0.090302,0.470334,-0.441553
472,-0.682552,-1.513219,-0.951776,-0.036298,0.998343,-0.044653,-1.294968,-0.959297,0.114711,-0.095049,0.402506,-0.177362
473,-0.602924,-1.521735,-0.854881,-0.027808,0.998797,-0.040394,0.341956,-0.645227,0.606442,-0.051491,-0.122759,-0.098156
474,-0.209958,-1.518131,-0.456955,-0.010971,0.998613,-0.051485,0.463714,0.032341,1.019826,-0.184082,-0.489367,-0.301115
475,0.187135,-1.520692,-0.067525,0.009318,0.998745,-0.049209,-0.435112,0.691336,0.8364469999999999,-0.142054,-0.194927,0.078612
476,0.48513,-1.533586,0.209543,0.017348,0.999308,-0.032909,-0.944019,1.153034,0.104842,-0.25150900000000004,-0.004603,0.316784
477,0.77287,-1.543244,0.48216,0.019234,0.99962,-0.019722,-0.277835,0.38763,0.193797,-0.392662,0.045149,0.395989
478,0.687725,-1.52955,0.395373,0.026175,0.999149,-0.031862,1.021948,0.121547,0.339949,-0.074973,-0.054951,0.119768
479,0.483671,-1.500425,0.166001,0.032698000000000005,0.997525,-0.06224800000000001,1.537476,1.951434,0.223701,0.041704000000000005,0.14491600000000002,-0.156884
480,0.522351,-1.485057,0.151556,0.042725,0.996327,-0.074215,0.478002,2.8427990000000003,0.410643,0.116989,0.403911,-0.543095
481,0.647374,-1.477458,0.22476,0.05621,0.995647,-0.07434500000000001,-0.163548,1.726962,0.557143,0.592441,1.475178,-0.330776
482,0.790243,-1.461045,0.36639,0.077825,0.993983,-0.077074,0.747395,-0.298497,1.191011,0.537273,0.072011,0.138552
483,0.764159,-1.441119,0.35707300000000003,0.089477,0.991604,-0.093361,0.180035,-1.095261,0.336696,0.438889,0.062931,-0.017296000000000002
484,0.820687,-1.447407,0.431524,0.090044,0.992397,-0.08390399999999999,-0.5893609999999999,-0.455513,0.059174,-0.022143,0.00861,0.375285
485,0.820435,-1.446141,0.428341,0.090942,0.992241,-0.084783,0.238727,0.250198,0.015984,0.12631199999999998,0.06855,-0.641383
486,0.8114439999999999,-1.4461190000000002,0.423699,0.090192,0.992238,-0.085612,-0.082285,-0.468673,-0.01952,0.260806,0.106288,-0.22102800000000006
487,0.793035,-1.443642,0.41715,0.090352,0.991927,-0.088982,0.310218,-0.609019,0.105178,0.390331,0.134996,-0.357429
488,0.70721,-1.432848,0.345881,0.089344,0.9905,-0.104533,0.976594,-0.88015,-0.068213,0.38873,0.10773599999999997,-0.44872
489,0.567218,-1.414266,0.224108,0.083759,0.987774,-0.13147899999999998,1.4000860000000002,-1.019607,-0.192194,0.056576,-0.098812,-0.13703
490,0.439309,-1.387435,0.117426,0.07755,0.983236,-0.165022,1.802113,-1.222654,-0.113282,-0.012303,-0.216192,-0.021807
491,0.316592,-1.345251,0.019927,0.069625,0.974672,-0.212524,2.609024,-1.473316,-0.199192,-0.089965,-0.3109,0.176925
492,0.201275,-1.28909,-0.06565900000000001,0.055576,0.960583,-0.272383,3.114424,-1.682239,-0.338535,-0.08614,-0.491405,0.269957
493,0.112761,-1.225441,-0.117784,0.038092,0.940955,-0.336381,3.342512,-2.091501,-0.22105,-0.026373,-0.494162,0.231294
494,0.034502,-1.16233,-0.14388099999999998,0.013702,0.917731,-0.396966,3.082263,-2.878531,-0.313726,-0.013778,-0.247183,0.188195
495,-0.034612000000000004,-1.103267,-0.163872,-0.015596,0.8926850000000001,-0.450412,2.781597,-2.2855990000000004,-0.4789560000000001,-0.033842000000000004,-0.093521,0.448947
496,-0.084301,-1.060933,-0.179893,-0.041095,0.872811,-0.486325,1.6394919999999995,-1.430559,-0.460255,-0.038007,-0.101296,0.419675
497,-0.109936,-1.04143,-0.190946,-0.055404,0.8631270000000001,-0.501938,0.514246,-0.481337,-0.29948400000000003,-0.047333,-0.00128,0.251068
498,-0.125753,-1.043061,-0.200577,-0.063159,0.86395,-0.4996020000000001,-0.416158,-0.397539,-0.202473,-0.030789,0.080081,0.082381
499,-0.143117,-1.059586,-0.20790100000000006,-0.069779,0.8721530000000001,-0.484232,-1.123531,-0.619819,0.053517,-0.057296000000000014,0.060876,0.224542
500,-0.15449200000000002,-1.095381,-0.209649,-0.070431,0.8891020000000001,-0.452257,-2.1902630000000003,-0.367701,0.266865,-0.05611,0.08160099999999999,0.214098
501,-0.16580599999999998,-1.145684,-0.21852600000000005,-0.068069,0.910992,-0.406767,-2.576072,-0.110407,0.194406,-0.145279,0.059879,-0.033037000000000004
502,-0.184101,-1.201259,-0.233286,-0.06612,0.932494,-0.355081,-2.985592,-0.307135,0.19607,-0.153866,0.08355800000000001,-0.16973
503,-0.223069,-1.268993,-0.269739,-0.06575700000000001,0.954802,-0.289878,-3.718251,-0.164385,0.031604,-0.15366400000000002,0.099138,-0.281823
504,-0.310967,-1.346982,-0.355754,-0.067912,0.975058,-0.211305,-4.171802,-0.307216,-0.086748,-0.056645000000000015,0.042795,-0.461958
505,-0.486579,-1.41813,-0.525656,-0.07111100000000001,0.988369,-0.134424,-3.588134,-0.525508,-0.08239199999999999,0.092641,-0.16415,-0.473455
506,-0.7732479999999999,-1.464243,-0.802921,-0.074282,0.994329,-0.07611,-2.473215,-0.572862,-0.129023,0.015826,0.092601,-0.297105
507,-1.122451,-1.482337,-1.143994,-0.079613,0.99609,-0.038295,-1.522876,-0.298628,-0.268014,-0.255577,0.5786020000000001,-0.116322
508,-1.283609,-1.48943,-1.311115,-0.077948,0.996692,-0.023022,-0.266167,0.549868,0.372064,-0.529275,0.4175390000000001,-0.209567
509,-1.121535,-1.497537,-1.1558389999999998,-0.06592999999999999,0.997318,-0.031788,0.6247189999999999,0.071802,0.604294,-0.320102,-0.120426,-0.8137479999999999
510,-0.955627,-1.501348,-0.980267,-0.056672,0.997589,-0.040047,0.258809,-0.598294,0.398567,-0.009292,-0.526779,-0.36721
511,-0.958374,-1.508504,-0.978257,-0.050939,0.99806,-0.035786,-0.461832,0.14921900000000002,0.30177600000000004,0.046315,-0.760969,0.261982
512,-1.038441,-1.525088,-1.079956,-0.039368,0.998956,-0.023191,-0.785416,1.637042,0.673624,0.193696,-0.8850180000000001,0.560178
513,-1.493025,-1.536237,-1.568023,-0.034447000000000005,0.999403,-0.002684,-1.221763,1.2669979999999998,-0.180323,-0.039268,-0.027159,0.420546
514,-2.047231,-1.526656,-2.129559,-0.039214,0.999026,0.020238,-1.015347,-0.040721,0.063145,-0.402788,0.063306,0.325237
515,-2.455686,-1.527637,-2.53749,-0.027327,0.999069,0.033388,-0.518418,0.081693,0.7202109999999999,-0.125779,0.06979400000000001,0.018019
516,-2.869262,-1.524805,-2.972068,-0.012367,0.998943,0.044282,-0.533812,1.580945,0.8976430000000001,0.414954,0.255299,0.009856
517,3.070638,-1.515239,2.92523,0.003937,0.998457,0.05539,-0.564509,2.311972,0.862309,0.393738,0.55205,-0.094162
518,2.840747,-1.51241,2.650485,0.017292,0.998296,0.055732,0.442416,1.88186,0.722478,0.14266600000000002,0.228419,-0.445319
519,2.652369,-1.51762,2.449136,0.024978,0.998586,0.046916,0.238906,-0.016799,0.185105,-0.092025,-0.123693,-0.407497
520,2.790479,-1.515324,2.596157,0.019069,0.998462,0.052061,-0.54215,-0.54372,-0.566362,-0.13055,0.554044,0.03261
521,3.091552,-1.502097,2.909823,0.0034340000000000004,0.997641,0.06855900000000001,-0.95191,-0.662365,-0.909835,0.058151,0.6658569999999999,-0.018754
522,-3.062065,-1.4814,3.055224,-0.007092,0.996007,0.088994,-0.931835,-0.579634,-0.305187,0.275449,0.460475,-0.053197
523,-3.063092,-1.474509,3.054214,-0.007539,0.995368,0.095843,-0.060622,0.160499,0.063145,0.827974,-0.176398,-0.238269
524,-3.053173,-1.474603,3.060213,-0.008481,0.995377,0.09567,0.070863,0.27581300000000003,-0.116614,0.828916,-0.17640699999999998,-0.238096
525,-3.004818,-1.480283,3.104894,-0.012324,0.995907,0.089545,0.297969,-0.05921000000000001,-0.181896,0.385615,0.000584,-0.589087
526,-2.9673580000000004,-1.480461,-3.127794,-0.015639,0.995923,0.08884700000000001,-0.041722,-0.931283,-0.250449,0.405104,0.014102000000000003,-0.08855700000000001
527,-2.941273,-1.481492,-3.078528,-0.017746,0.996015,0.087402,0.250949,-1.236283,-0.155079,0.455948,-0.121747,0.069412
528,-2.916794,-1.500034,-3.029538,-0.01576,0.997497,0.068923,1.502865,-1.132954,0.091747,0.486967,-0.242584,0.125229
529,-2.684878,-1.545909,-2.778206,-0.010975,0.99969,0.022336,2.740478,-0.972776,0.254011,0.271122,-0.118709,-0.640652
530,-0.111941,-1.532426,-0.169199,-0.004285,0.999264,-0.038122,3.068038,-2.53917,0.3459,0.12219,-0.014858,-0.64593
531,-0.076829,-1.470811,-0.067661,-0.007661,0.995006,-0.099524,3.252287,-3.3633269999999995,-0.170913,-0.144926,0.121587,0.30640300000000004
532,-0.126125,-1.39502,-0.059358,-0.021997,0.984591,-0.173484,3.945248,-2.650453,-0.289831,-0.484366,0.212415,0.462699
533,-0.126255,-1.326332,-0.01149,-0.030477,0.970267,-0.24011,3.089557,-2.077764,0.292048,-0.487421,0.4663020000000001,0.228895
534,-0.091194,-1.273876,0.050358,-0.026644,0.956242,-0.29136100000000004,2.548829,-0.7445970000000001,0.633735,-0.21066,0.7099409999999999,0.313639
535,-0.029763,-1.228444,0.132549,-0.00999,0.941968,-0.335555,2.261588,-1.070065,1.554021,-0.106633,0.945621,0.035735
536,0.045683,-1.182618,0.254133,0.017285,0.9256,-0.378108,2.284072,-2.456776,2.529105,0.196414,0.799925,-0.145421
537,0.092956,-1.134695,0.373393,0.039209,0.906406,-0.420585,2.120205,-3.241696,2.358051,0.373755,0.5684170000000001,0.052039
538,0.109408,-1.093585,0.454628,0.050151,0.888279,-0.456558,1.618313,-2.442076,1.829024,0.149052,0.178829,0.415512
539,0.133916,-1.073498,0.5217229999999999,0.063694,0.878875,-0.4727810000000001,0.353322,-1.426789,1.574264,-0.194676,0.084092,0.251101
540,0.150114,-1.0721459999999998,0.5733050000000001,0.071521,0.878229,-0.472863,-0.323573,-1.61395,1.0143,-0.47179,0.239798,0.056892999999999985
541,0.13863699999999998,-1.081881,0.60627,0.06490499999999999,0.882843,-0.465162,-0.776776,-2.251851,0.559026,-0.467875,0.104569,0.08267000000000001
542,0.115849,-1.10505,0.63268,0.051910000000000005,0.893487,-0.446079,-1.475832,-2.258238,0.365076,-0.252548,-0.178445,0.182362
543,0.09271,-1.140273,0.648459,0.038637,0.908748,-0.415554,-1.937669,-1.587465,0.054411,0.025557,-0.363322,0.197048
544,0.076725,-1.184252,0.656668,0.028896,0.926217,-0.375881,-2.406183,-0.965612,-0.0052060000000000006,0.036457,-0.391763,0.060574
545,0.073644,-1.239897,0.668805,0.023905000000000003,0.945751,-0.324013,-3.003756,-0.567042,-0.059029,0.056387,-0.27119,-0.107521
546,0.062065,-1.301687,0.6614869999999999,0.016491,0.964008,-0.265361,-3.030098,0.007973000000000001,-0.509672,0.253986,-0.047184,-0.369496
547,-0.000366,-1.349731,0.596418,-8e-05,0.975664,-0.219269,-1.6981529999999998,-0.1608,-1.016103,0.301792,0.149214,-0.598175
548,-0.062026,-1.348867,0.555307,-0.013644,0.975475,-0.219689,0.94768,-1.659544,0.127,0.4138060000000001,0.395268,-0.581275
549,-0.006171,-1.322814,0.652121,-0.001515,0.96941,-0.245444,1.33064,-1.928592,1.541141,0.430699,-0.032291,-0.297189
550,0.08075,-1.296519,0.7765920000000001,0.021848,0.962621,-0.269969,1.23542,-1.496889,1.557014,0.34483600000000003,-0.148519,0.106899
551,0.127505,-1.265809,0.855476,0.038184,0.953851,-0.297843,1.5299120000000002,-1.429137,1.142378,0.168756,-0.240991,0.518684
552,0.15774000000000002,-1.242265,0.907133,0.050684,0.946517,-0.318647,0.385151,-0.5185390000000001,0.8565450000000001,0.060857000000000015,-0.034454000000000005,1.301726
553,0.170725,-1.261995,0.925245,0.051634000000000006,0.952699,-0.299498,-1.541134,-0.288171,-0.468981,-0.42076,0.543578,1.033995
554,0.114546,-1.283637,0.8614709999999999,0.032372000000000005,0.959052,-0.281372,-0.135966,0.670706,-1.185718,-0.792,0.26831900000000003,0.676605
555,0.09153,-1.262647,0.823551,0.027722000000000004,0.952897,-0.302026,1.430135,0.23412,0.074532,-0.346509,0.08251900000000001,0.003915
556,0.072974,-1.24662,0.8304530000000001,0.023224,0.947914,-0.31768,0.405108,-2.09309,0.059673,0.06163,0.103676,-0.311318
557,0.001003,-1.248176,0.81562,0.00031800000000000003,0.948408,-0.317052,-0.401197,-3.214392,-0.41454,0.177172,0.0329,-0.202967
558,-0.107194,-1.272546,0.7766270000000001,-0.031439,0.955852,-0.292162,-1.802478,-3.624676,-0.493237,0.494116,0.093754,0.358843
559,-0.207814,-1.3126520000000002,0.734893,-0.052671,0.966865,-0.249794,-1.884889,-2.562884,-0.08390800000000001,0.61395,0.430229,0.72216
560,-0.246784,-1.33464,0.7331439999999999,-0.057155,0.972244,-0.226879,-0.699625,-1.594322,0.429467,0.376506,0.5230100000000001,0.374767
561,-0.229464,-1.351478,0.7796569999999999,-0.049486,0.976046,-0.211862,-0.814062,-1.284361,0.803217,0.055483000000000005,0.220823,0.080072
562,-0.209225,-1.376621,0.8261729999999999,-0.040078,0.981207,-0.188749,-1.292771,-1.33546,0.6770930000000001,-0.14868900000000002,-0.024191,-0.090471
563,-0.213047,-1.407166,0.8549549999999999,-0.034444,0.986642,-0.159218,-1.486981,-1.7665369999999998,0.48935,-0.184657,-0.08591599999999999,-0.037804
564,-0.258585,-1.436286,0.8476540000000001,-0.034293000000000004,0.990967,-0.129647,-1.367998,-1.950006,0.180632,-0.171625,-0.044251,0.126183
565,-0.344506,-1.4606059999999998,0.797296,-0.03714,0.993935,-0.103506,-1.215634,-1.712206,-0.011957,-0.087647,-0.114266,0.111029
566,-0.509079,-1.482949,0.6646310000000001,-0.042759,0.996144,-0.076609,-1.3475629999999998,-1.561929,-0.18185,-0.021480000000000003,-0.171361,0.09112
567,-0.785904,-1.502264,0.414696,-0.048446,0.997653,-0.048397,-1.303465,-1.27222,-0.208619,0.055358,-0.23665100000000006,0.128063
568,-1.164599,-1.511179,0.057256,-0.054734000000000005,0.998223,-0.023542,-1.15655,-0.978271,-0.319064,0.08404600000000001,-0.27265300000000003,0.158048
569,-1.59226,-1.508126,-0.356029,-0.062614,0.998037,0.001344,-1.229217,-0.6568579999999999,-0.4471020000000001,0.077201,-0.271185,0.149092
570,-1.92454,-1.494119,-0.675542,-0.071859,0.997062,0.026536,-1.194302,-0.743187,-0.468113,0.055517,-0.201636,0.070922
571,-2.143118,-1.4763190000000002,-0.8769399999999999,-0.079304,0.99554,0.051092,-1.147779,-0.978096,-0.371347,0.107609,-0.103786,-0.011999
572,-2.29094,-1.456843,-1.006407,-0.085475,0.993514,0.074989,-1.097148,-0.8844690000000001,-0.386069,0.224666,-0.047546,-0.089088
573,-2.374669,-1.4376870000000002,-1.076443,-0.092095,0.991154,0.095562,-0.876075,-0.608221,-0.396629,0.291558,-0.008976000000000001,-0.218884
574,-2.410263,-1.422122,-1.10216,-0.098929,0.988968,0.110249,-0.578912,-0.485669,-0.398983,0.329947,0.084655,-0.346288
575,-2.414711,-1.411692,-1.095183,-0.105286,0.98737,0.118389,-0.211525,-0.619125,-0.377018,0.357773,0.133556,-0.275326
576,-2.395427,-1.407543,-1.062683,-0.11033,0.986704,0.119345,0.152924,-0.627137,-0.287936,0.349191,0.081015,-0.098486
577,-2.353198,-1.40982,-1.008849,-0.113675,0.987071,0.112996,0.5362779999999999,-0.480685,-0.214943,0.257825,0.060902,-0.204411
578,-2.2646900000000003,-1.418175,-0.910187,-0.116875,0.988376,0.097228,1.049515,-0.481349,-0.227381,0.167152,0.113873,-0.429519
579,-2.100376,-1.430902,-0.7316779999999999,-0.120338,0.990231,0.07044,1.68321,-0.7084060000000001,-0.205572,0.058448,0.372135,-0.197821
580,-1.822641,-1.444963,-0.433895,-0.121543,0.992093,0.031274,2.27875,-0.934996,-0.001364,0.049018,0.602557,0.410926
581,-1.445057,-1.452506,-0.034342000000000004,-0.117083,0.993012,-0.0148,2.506414,-0.965966,0.352779,0.147463,0.2798,0.301497
582,-1.049632,-1.445065,0.379301,-0.108753,0.992106,-0.062436,2.475353,-0.617005,0.492052,0.283283,-0.072062,-0.028903
583,-0.723007,-1.423838,0.716271,-0.096884,0.989221,-0.109796,2.405721,-0.243652,0.691913,0.318762,-0.008142,0.042352
584,-0.48652,-1.392716,0.964168,-0.08282300000000001,0.984186,-0.156586,2.3644540000000003,-0.527335,0.8073560000000001,0.294218,0.447821,0.117966
585,-0.35025300000000004,-1.359599,1.11799,-0.07193200000000001,0.977781,-0.196903,1.919777,-0.910634,0.610325,0.073152,0.572955,0.254276
586,-0.266314,-1.333227,1.229952,-0.061936,0.971913,-0.227045,1.521725,-1.31538,0.94028,0.053453,0.430492,0.43693
587,-0.177981,-1.308186,1.343635,-0.045961,0.965716,-0.255502,1.543134,-1.0331629999999998,1.208192,0.102556,0.228041,0.380731
588,-0.07839600000000001,-1.281564,1.470348,-0.022337,0.958463,-0.284341,1.530743,-1.135344,1.729528,0.166121,0.121188,0.268349
589,0.021492,-1.253254,1.602997,0.00671,0.950006,-0.312161,1.44299,-1.5996709999999998,2.038227,0.070728,0.096991,0.093914
590,0.0912,-1.221981,1.729005,0.031127,0.939778,-0.340364,1.416452,-3.075613,2.194825,-0.011535,0.085231,0.135012
591,0.12941,-1.19927,1.848586,0.04685,0.931774,-0.360002,1.183234,-3.906873000000001,2.216686,0.007792,0.090366,0.365587
592,0.16298900000000002,-1.193321,1.96827,0.059808000000000014,0.929598,-0.36369,1.023471,-3.995213,2.068248,0.025427,-0.003771,0.453427
593,0.170373,-1.16743,2.059717,0.066551,0.919745,-0.386834,0.957416,-3.741539,1.824975,-0.000771,-0.115011,0.454675
594,0.16746,-1.1454719999999998,2.132745,0.068774,0.910905,-0.406845,0.73552,-3.3336550000000003,1.514186,-0.088229,-0.198518,0.364364
595,0.159727,-1.132112,2.190457,0.06755599999999999,0.905311,-0.419342,0.276428,-2.801229,1.16633,-0.187703,-0.255623,0.32019000000000003
596,0.14659,-1.129358,2.232945,0.062405,0.904138,-0.422658,-0.150258,-2.461551,0.774081,-0.216351,-0.302637,0.35382600000000003
597,0.12900599999999998,-1.1346120000000002,2.262204,0.054352,0.90637,-0.418974,-0.455221,-2.013987,0.469071,-0.246628,-0.29601900000000003,0.381086
598,0.107804,-1.1469,2.27769,0.044255,0.911493,-0.408927,-0.77635,-1.653515,0.112784,-0.247213,-0.242167,0.25919200000000003
599,0.079546,-1.167337,2.2787490000000004,0.031197000000000006,0.919708,-0.391361,-1.161902,-1.306977,-0.165954,-0.115868,-0.242768,0.209399
600,0.05453,-1.195681,2.273482,0.019969,0.930465,-0.365835,-1.542826,-0.857107,-0.183078,0.028219,-0.16403199999999998,0.08338
601,0.037146,-1.229275,2.27023,0.012438,0.942246,-0.33469,-1.704514,-0.6757479999999999,-0.108596,0.09921,0.036666,-0.118801
602,0.013531,-1.259075,2.259179,0.00415,0.951807,-0.30667,-1.29399,-0.6817300000000001,-0.300137,0.198151,0.153402,-0.469392
603,-0.033972,-1.272761,2.232042,-0.009974,0.955915,-0.293474,-0.17423,-1.373353,-0.406797,0.294916,0.13481400000000002,-0.706832
604,-0.058478,-1.263703,2.232239,-0.017667,0.953216,-0.301772,0.621474,-0.945413,0.309648,0.531751,-0.087326,0.138
605,-0.018744,-1.253099,2.277225,-0.005855,0.949957,-0.312325,0.5155850000000001,0.450561,0.8177300000000001,0.35374,-0.106573,0.778313
606,0.032784,-1.243833,2.304145,0.010527,0.947022,-0.320996,0.455549,1.668622,-0.040965,-0.0502,1.194213,0.8025180000000001
607,0.036291,-1.240922,2.267717,0.011753,0.946083,-0.323711,-0.23663,1.839715,-0.401737,-0.743793,0.970466,0.152705
608,0.09504,-1.244324,2.31595,0.030434,0.94718,-0.319256,0.100371,-0.305291,1.054011,-0.565529,-0.02593,-0.538334
609,0.08505499999999999,-1.234187,2.342723,0.028059,0.94388,-0.329095,0.357335,-2.50736,0.06945499999999999,-0.441587,-0.071413,-0.717002
610,0.017928,-1.243535,2.321137,0.005763,0.946926,-0.321399,-0.921741,-1.863567,-0.510735,-0.05601,-0.360073,0.6723210000000001
611,-0.027736,-1.277687,2.286435,-0.008013,0.95735,-0.288819,-2.115126,0.124196,-0.5312319999999999,0.139955,-0.194472,1.059983
612,-0.055934000000000005,-1.321177,2.231168,-0.013811000000000002,0.969006,-0.246649,-2.104651,1.885441,-0.626351,0.212312,-0.013379,0.981848
613,-0.040946,-1.354811,2.198681,-0.008773,0.976766,-0.214131,-1.40178,2.382547,-0.076217,0.389952,0.558391,-0.11816
614,-0.010083,-1.3787,2.203349,-0.001925,0.981606,-0.190908,-1.199937,0.448797,0.083631,0.383105,0.55355,-0.14138299999999998
615,-0.018182,-1.403988,2.209927,-0.003019,0.98612,-0.166008,-1.275714,-1.207489,0.094838,0.161664,0.0693,-0.199684
616,-0.033137,-1.428052,2.220803,-0.004713,0.989829,-0.142182,-1.116929,-1.246398,0.097065,-0.014772,-0.173881,0.173707
617,-0.064304,-1.447032,2.213464,-0.007932999999999999,0.992351,-0.123193,-0.870434,-1.164565,-0.06796,-0.029451,-0.195339,0.187113
618,-0.13281099999999998,-1.463079,2.168085,-0.014237,0.994204,-0.106563,-0.814257,-1.186418,-0.245933,-0.025513,-0.212985,0.16384400000000002
619,-0.246053,-1.477494,2.078489,-0.022693,0.99565,-0.090361,-0.774462,-1.201124,-0.332162,0.025165,-0.125533,0.072951
620,-0.402763,-1.48942,1.943127,-0.031861,0.996691,-0.074782,-0.75626,-1.006019,-0.3889,0.050568,-0.08632100000000001,0.020018
621,-0.620293,-1.499628,1.741974,-0.041333,0.997469,-0.057861,-0.8637520000000001,-0.754062,-0.433771,0.097073,-0.07145900000000001,-0.029496
622,-0.924437,-1.507192,1.449754,-0.05074,0.997978,-0.038282,-1.001548,-0.558616,-0.439257,0.105809,-0.073387,-0.051714
623,-1.292892,-1.509241,1.089518,-0.059155999999999986,0.998106,-0.016876,-1.0608229999999998,-0.391412,-0.37686,0.140852,-0.075529,-0.13414
624,-1.6280709999999998,-1.505786,0.760813,-0.064858,0.997888,0.003719,-0.952492,-0.344482,-0.219135,0.232705,-0.06849,-0.16201300000000002
625,-1.855828,-1.500503,0.538876,-0.0674,0.99753,0.019749,-0.668004,-0.296995,-0.086886,0.321413,0.028806,-0.104115
626,-1.980415,-1.497112,0.41936,-0.06752799999999999,0.997286,0.029319,-0.33443,-0.257098,0.036102,0.324913,0.13088699999999998,-0.06299500000000001
627,-2.0244470000000003,-1.498292,0.379537,-0.065114,0.997373,0.031747000000000004,0.035627,-0.172578,0.157151,0.288549,0.115359,-0.06603400000000001
628,-1.976859,-1.504924,0.428189,-0.06047200000000001,0.997831,0.026000000000000002,0.460717,0.049175,0.277341,0.212846,0.140688,-0.022369
629,-1.6913669999999998,-1.518428,0.709278,-0.051964,0.998629,0.006296,1.349668,0.375206,0.557666,0.06742100000000001,0.378614,0.322439
630,-0.770867,-1.52367,1.6180290000000002,-0.032823000000000005,0.99889,-0.033792,2.331097,0.789846,1.2423110000000002,-0.014708,-0.026218,0.216332
631,0.001322,-1.480025,2.372113,0.00012,0.995883,-0.090647,3.181413,0.991781,1.6870310000000002,-0.010221,-0.057422,-0.02918
632,0.191387,-1.400019,2.550732,0.032328,0.985453,-0.166845,4.323882,0.410586,1.384903,-0.078135,0.137853,-0.510309
633,0.1879,-1.30017,2.549821,0.049937,0.963604,-0.26263000000000003,4.975956,-0.7106359999999999,0.692277,-0.403056,0.5005229999999999,-0.518666
634,0.116771,-1.21186,2.522146,0.040926,0.936271,-0.34888600000000003,3.984898,-3.453079,0.059686,-0.404863,0.547036,-0.134939
635,-0.003016,-1.153303,2.51361,-0.001223,0.914108,-0.405469,2.395813,-6.17888,0.04567,-0.242521,0.423386,0.503415
636,-0.08488899999999999,-1.106165,2.5218580000000004,-0.037993,0.8939870000000001,-0.44648,2.44728,-2.974955,0.107086,0.270018,0.169704,0.90464
637,-0.070845,-1.05998,2.559309,-0.034607,0.872346,-0.487663,2.246049,-0.43344,1.13753,0.394302,0.135924,0.4560010000000001
638,-0.041434,-1.023851,2.62054,-0.021543,0.854117,-0.519634,1.6354799999999998,-1.686109,1.376289,0.513151,0.307779,-0.008594
639,-0.045325,-1.000453,2.656991,-0.024463,0.841716,-0.539367,0.968114,-1.530881,0.699517,0.137317,0.009099,0.458358
640,-0.048725,-0.988444,2.681369,-0.026788,0.8351709999999999,-0.549337,0.458159,-1.075204,0.674006,-0.159598,-0.40025,0.408056
641,-0.047685000000000005,-0.98577,2.708461,-0.026323000000000003,0.8336969999999999,-0.5515939999999999,-0.033164,-1.118553,0.751815,-0.176467,-0.5291170000000001,0.305729
642,-0.050767,-0.995168,2.7307490000000003,-0.027624,0.838851,-0.54366,-0.6782779999999999,-1.005762,0.5442020000000001,-0.091456,-0.485442,0.405233
643,-0.049227,-1.016964,2.748213,-0.02588,0.8505149999999999,-0.525313,-1.273113,-0.4369020000000001,0.5264989999999999,-0.042357,-0.503225,0.475616
644,-0.043525,-1.046181,2.759137,-0.021794,0.865517,-0.500406,-1.537966,-0.058828,0.248564,0.004277,-0.5488970000000001,0.429819
645,-0.036721,-1.079827,2.765087,-0.017309,0.881876,-0.471163,-1.750304,0.13700199999999998,0.211578,-0.008768000000000001,-0.556635,0.368258
646,-0.026797,-1.117272,2.771896,-0.011739,0.898908,-0.437979,-1.924852,0.222864,0.202771,-0.011576,-0.533293,0.320425
647,-0.021171,-1.157029,2.7719240000000003,-0.008512,0.915613,-0.401972,-2.049996,0.355422,-0.07066900000000001,-0.002337,-0.496667,0.270853
648,-0.024112,-1.202595,2.755304,-0.008678,0.932976,-0.359833,-2.450828,0.832101,-0.380659,-0.009953,-0.396126,0.197876
649,-0.043304,-1.257303,2.710379,-0.01335,0.951262,-0.308094,-2.881933,1.299931,-0.8489469999999999,-0.0217,-0.172499,0.029362
650,-0.107895,-1.308591,2.617745,-0.027913,0.965821,-0.257704,-2.357476,1.063116,-1.222062,-0.132762,0.02391,-0.185198
651,-0.213411,-1.33607,2.500336,-0.049259,0.972578,-0.22730100000000006,-1.097642,-0.054912,-1.110348,-0.116192,0.14583,-0.371027
652,-0.309412,-1.340767,2.424814,-0.069428,0.97366,-0.217178,-0.223838,-1.6580000000000001,-0.574489,-0.049088,0.410679,-0.338562
653,-0.366976,-1.34624,2.403323,-0.079894,0.974893,-0.207847,-0.432103,-1.7346009999999998,0.113157,0.058135,0.342413,-0.273995
654,-0.380873,-1.358378,2.411743,-0.07837000000000001,0.977524,-0.195717,-0.535223,-0.681726,0.372802,0.144395,-0.02945,-0.032051
655,-0.362591,-1.3695190000000002,2.431772,-0.070911,0.979812,-0.186922,-0.401068,0.246568,0.413142,-0.009273,-0.148651,0.096575
656,-0.331606,-1.381143,2.455098,-0.061374,0.98207,-0.178248,-0.543342,0.378181,0.390616,-0.115765,-0.115889,0.036814
657,-0.321114,-1.396718,2.463374,-0.054666,0.984887,-0.164347,-0.774079,-0.030714,0.281637,-0.189566,-0.07985700000000001,-0.028616000000000006
658,-0.325934,-1.409758,2.461021,-0.051341,0.987061,-0.151901,-0.488996,-0.135483,0.127803,-0.17316199999999998,0.622283,0.220581
659,-0.305371,-1.416542,2.477873,-0.046192,0.988126,-0.146535,-0.202797,0.387794,0.355594,-0.05154,0.325335,0.320714
660,-0.235201,-1.426046,2.541673,-0.033615,0.989542,-0.140275,-0.354267,0.243205,0.680529,0.06730599999999999,-0.158472,0.557557
661,-0.135094,-1.429327,2.646166,-0.01899,0.99001,-0.139713,0.094684,-0.379961,0.81906,0.01194,-0.154606,0.392353
662,-0.0020870000000000003,-1.4294870000000002,2.774308,-0.000294,0.990032,-0.14083900000000002,0.188087,1.047801,0.931114,-0.03445,-0.031536,0.222977
663,0.16161099999999998,-1.415291,2.8853150000000003,0.024921,0.987933,-0.152861,0.815984,3.372878,0.7584,-0.021076,0.256375,-0.016038
664,0.261908,-1.402143,2.924094,0.043462,0.985812,-0.162131,0.545872,2.542039,0.441385,0.288249,0.37457,-0.203149
665,0.344849,-1.386191,2.9908650000000003,0.062053,0.983009,-0.172752,0.580238,0.046996,0.985342,0.18781,-0.152137,0.207389
666,0.401996,-1.36603,3.055672,0.079557,0.979108,-0.187129,0.59253,-0.475407,0.813045,0.197344,-0.390592,0.457774
667,0.445949,-1.362135,3.106938,0.089347,0.978309,-0.186892,-0.2936,-0.026629000000000003,0.442017,-0.15763,-0.320869,0.567355
668,0.470164,-1.362196,3.122452,0.093819,0.978322,-0.18462,0.032775,0.6039680000000001,-0.094895,-0.245888,-0.014745,0.085789
669,0.443838,-1.368897,3.0914740000000003,0.08611,0.979687,-0.181101,-0.340668,-0.083245,-0.542072,-0.175725,0.133823,-0.187292
670,0.4316350000000001,-1.380371,3.086078,0.079185,0.981924,-0.171917,-0.51078,-0.430762,-0.069592,0.417839,-0.058416,0.262554
671,0.459032,-1.384667,3.119335,0.081995,0.982728,-0.165899,-0.127498,-0.057324,0.247732,0.5060939999999999,-0.055268,0.206625
672,0.477074,-1.382673,3.133783,0.085874,0.982357,-0.166134,0.0033380000000000003,0.209027,0.126528,0.353655,0.107197,-0.242222
673,0.4861430000000001,-1.381701,-3.139678,0.087823,0.982175,-0.166193,0.055041,-0.193676,0.088949,0.230139,0.024219,-0.192816
674,0.477979,-1.3776,3.140382,0.08831599999999999,0.981396,-0.170479,0.255832,-0.201608,0.033746,0.08319299999999999,-0.017544,-0.040306
675,0.463201,-1.370262,3.125509,0.089002,0.97996,-0.178203,0.520205,0.038021,0.085492,0.042666,-0.067393,-0.078709
676,0.437611,-1.352028,3.10193,0.091971,0.976166,-0.196576,1.198883,-0.29396700000000003,0.201753,-0.005835,-0.024704,-0.206622
677,0.393147,-1.324307,3.070412,0.093476,0.969775,-0.225386,1.479148,-0.8690180000000001,0.17560499999999998,-0.107469,-0.189166,-0.204149
678,0.331015,-1.293453,3.023747,0.088986,0.961786,-0.258938,1.782795,-0.8016949999999999,-0.139622,-0.092237,-0.251062,0.258297
679,0.25593,-1.255539,2.964101,0.07849,0.950717,-0.299962,2.27471,-1.03251,-0.386922,-0.035338999999999995,-0.156451,0.302831
680,0.16714500000000002,-1.206273,2.90307,0.059311,0.934294,-0.351536,2.854187,-1.843601,-0.518568,0.060104,-0.168226,0.136707
681,0.089184,-1.140015,2.857884,0.037192,0.90864,-0.415922,3.762488,-1.873895,-0.390407,0.016595,0.14205,0.139066
682,0.02683,-1.06379,2.834934,0.013026,0.874202,-0.485388,3.719747,-2.175973,-0.202311,0.045339,0.579762,-0.0805
683,-0.019392,-1.002732,2.837598,-0.010432,0.842944,-0.5379,2.544387,-2.6114580000000003,0.230144,0.066264,0.646649,-0.058413
684,-0.06754099999999999,-0.967739,2.8466150000000003,-0.038277,0.8236049999999999,-0.56587,1.493849,-2.640391,0.118157,0.16506300000000002,0.4597350000000001,0.099745
685,-0.104838,-0.940994,2.841203,-0.061635,0.808144,-0.585751,1.175341,-1.05787,-0.550529,0.115209,0.105888,0.7504850000000001
686,-0.132964,-0.921019,2.821502,-0.080207,0.796218,-0.599669,0.7079850000000001,-0.444428,-0.638969,-0.005761,-0.107818,0.596449
687,-0.146447,-0.917473,2.810282,-0.088697,0.794068,-0.601322,-0.26421,-0.06780900000000001,-0.207204,-0.14441099999999998,-0.275681,0.409138
688,-0.148239,-0.937582,2.80282,-0.087398,0.806129,-0.585249,-1.496366,0.361912,-0.042241,-0.262166,-0.15151199999999998,0.188719
689,-0.147856,-0.977998,2.79157,-0.082304,0.8293799999999999,-0.552589,-2.271539,0.511429,0.00236,-0.243242,-0.232716,0.186774
690,-0.14442,-1.026386,2.78221,-0.074537,0.855433,-0.512522,-2.502269,0.606408,0.15979100000000002,-0.213396,-0.338984,0.141825
691,-0.140649,-1.0770620000000002,2.7743,-0.066436,0.880569,-0.469238,-2.5496950000000003,0.471395,0.131859,-0.140808,-0.323456,0.07849099999999999
692,-0.150571,-1.129618,2.75357,-0.064052,0.904249,-0.422174,-2.763768,0.41825,-0.244514,0.007701,-0.18083,0.018381
693,-0.190689,-1.187905,2.701314,-0.070811,0.927588,-0.366832,-3.287742,0.411247,-0.702159,0.114757,0.039728,-0.073399
694,-0.270728,-1.259225,2.602018,-0.081983,0.951853,-0.295389,-4.132127,0.899367,-0.825119,0.166318,0.323187,-0.121206
695,-0.369829,-1.3321379999999998,2.470924,-0.085448,0.971656,-0.220416,-3.707849,1.582886,-0.297466,0.120619,0.617791,-0.213879
696,-0.414789,-1.376215,2.400442,-0.077922,0.981129,-0.176959,-1.326208,0.865766,0.34820300000000004,0.087275,0.636059,-0.47154
697,-0.35132800000000003,-1.375943,2.454037,-0.066634,0.981076,-0.181796,0.929564,0.458591,0.583467,-0.007370999999999998,0.103061,-0.689329
698,-0.239073,-1.360885,2.557659,-0.049343,0.978049,-0.202447,0.734585,0.562527,0.867187,-0.004627,-0.107627,-0.562034
699,-0.14698599999999998,-1.370703,2.643079,-0.029110000000000007,0.980048,-0.196617,-0.92569,0.413321,0.991446,-0.072742,-0.484565,0.130867
700,-0.058123,-1.4055959999999998,2.71862,-0.009553,0.986385,-0.164172,-1.970657,0.923242,0.6523439999999999,-0.0014789999999999998,-0.669308,0.670169
701,-0.087371,-1.445948,2.673827,-0.010866,0.992217,-0.12405,-1.797918,0.476499,-0.729224,-0.232664,0.015855,0.690364
702,-0.278321,-1.461689,2.473195,-0.029917000000000006,0.994054,-0.1047,-0.469617,0.37854,-0.826642,-0.820715,0.389308,0.545557
703,-0.262095,-1.456932,2.489605,-0.029439,0.993524,-0.10973800000000003,0.508566,-0.19399,0.307898,-0.110927,0.10372,-0.447329
704,-0.174324,-1.447686,2.576139,-0.021299,0.992432,-0.12093800000000003,0.515432,0.5754100000000001,0.500308,0.595212,-0.032074,0.043942
705,-0.042552,-1.445851,2.684847,-0.005301,0.992204,-0.124507,-0.017525,1.375353,0.7156140000000001,0.53385,0.128447,0.273906
706,0.143102,-1.437946,2.830191,0.018891,0.991188,-0.131106,0.709666,2.643093,1.134607,0.132873,0.319359,0.161181
707,0.306006,-1.414953,2.940682,0.046758,0.987881,-0.148003,0.8502549999999999,2.001653,0.78283,0.167292,1.321964,-1.086876
708,0.36835,-1.396257,2.990019,0.062529,0.984807,-0.16200599999999998,0.689353,0.087088,0.7222029999999999,0.06801,0.053264,0.162205
709,0.389653,-1.379138,3.019227,0.07236000000000001,0.98169,-0.176209,0.598082,-0.582501,0.41798,-0.15665,-0.341202,0.362244
710,0.389969,-1.3763379999999998,3.025336,0.07346,0.981153,-0.178727,-0.117402,0.162497,-0.118879,-0.119771,-0.26106,0.424729
711,0.382168,-1.381831,2.9977970000000003,0.070053,0.982199,-0.174292,-0.191852,1.113077,-0.409037,-0.100479,-0.07462200000000001,0.259649
712,0.349601,-1.394164,2.9580740000000003,0.060186,0.984441,-0.16508599999999998,-0.536353,-0.12858499999999998,-0.4889,0.275843,0.344477,0.018082
713,0.363397,-1.401758,2.977373,0.059799,0.985747,-0.157248,-0.305402,-0.177308,0.305396,0.41571,0.199388,0.20625900000000005
714,0.409456,-1.398563,3.024594,0.068229,0.985205,-0.157216,0.143126,0.023113,0.41189,0.504555,0.073023,0.161351
715,0.425961,-1.3901629999999998,3.040444,0.074232,0.98373,-0.163599,0.473841,0.073827,0.230401,0.181567,-0.174328,-0.188391
716,0.414999,-1.375412,3.027654,0.078277,0.980973,-0.17766400000000002,0.8505149999999999,0.050294,0.194606,0.07779,-0.146287,-0.13804
717,0.395634,-1.354563,3.009474,0.082687,0.976713,-0.197978,1.144684,-0.15671400000000002,0.291998,0.038361,-0.150403,0.188274
718,0.375712,-1.324123,2.994451,0.089598,0.96973,-0.227147,1.7459080000000002,-0.32784,0.473741,0.071001,-0.304981,0.07675599999999999
719,0.339571,-1.279182,2.9691560000000004,0.095761,0.957781,-0.271082,2.4178740000000003,-0.8722840000000001,0.446018,-0.079541,-0.27112,-0.130148
720,0.28170700000000004,-1.22611,2.935466,0.093935,0.941182,-0.32458200000000004,2.880286,-1.499262,0.194746,-0.155474,-0.14111700000000002,0.143506
721,0.205716,-1.1608120000000002,2.891299,0.08142,0.917127,-0.390191,3.639842,-1.966572,-0.017266999999999998,-0.241546,0.026873,0.209404
722,0.125754,-1.08522,2.860194,0.058537,0.8844059999999999,-0.463033,4.002081,-2.812516,-0.037153,-0.098897,0.28042,0.304723
723,0.060671,-1.012713,2.840684,0.032109,0.8482719999999999,-0.528587,3.219734,-2.066755,-0.174965,0.044719,0.371333,0.20861
724,0.024577,-0.965859,2.831507,0.013976,0.8225379999999999,-0.568539,1.904335,-1.081128,-0.161915,0.08557200000000001,0.300555,0.292767
725,-0.00249,-0.935531,2.818668,-0.001477,0.804914,-0.59339,1.374948,-0.731795,-0.482254,0.00813,0.241045,0.32402600000000004
726,-0.024437,-0.914238,2.804008,-0.014913999999999997,0.792098,-0.610212,0.798959,-0.366923,-0.386332,-0.017953,0.237611,0.369855
727,-0.032181,-0.911186,2.795543,-0.019717,0.790231,-0.612492,-0.281248,0.170896,-0.212969,-0.023007,0.225623,0.291691
728,-0.029628,-0.929546,2.785982,-0.017721,0.801348,-0.5979359999999999,-1.27752,0.63161,-0.277134,-0.179255,0.077589,0.119557
729,-0.026702,-0.965408,2.778664,-0.015194,0.8222809999999999,-0.568879,-2.087748,0.252271,-0.08255,-0.201908,0.044632,0.099778
730,-0.029254,-1.014509,2.776305,-0.015445,0.8492209999999999,-0.5278109999999999,-2.649195,-0.160649,0.035835000000000006,-0.15668900000000002,-0.07723300000000001,0.080286
731,-0.038335,-1.073188,2.773895,-0.018294,0.878727,-0.476974,-3.112378,-0.443417,0.02228,-0.077638,-0.334018,0.016266
732,-0.051766,-1.140926,2.766222,-0.021564,0.90902,-0.416195,-3.533274,-0.15194100000000002,-0.042991,-0.019375,-0.525917,0.068691
733,-0.062492999999999986,-1.213731,2.744253,-0.021829,0.936926,-0.348844,-3.696754,0.916183,-0.34674,0.04371,-0.452964,0.004972
734,-0.090343,-1.287115,2.6845790000000003,-0.025252,0.960032,-0.278751,-3.72751,1.64588,-0.8478180000000001,0.050993,-0.124659,-0.175214
735,-0.188759,-1.352774,2.552646,-0.040586,0.976327,-0.212457,-3.2194540000000003,1.25386,-1.288147,-0.077837,0.463813,-0.347952
736,-0.31808000000000003,-1.398392,2.410313,-0.053652,0.985175,-0.162947,-2.0051650000000003,-0.069004,-0.26315900000000003,-0.188932,0.761636,-0.420656
737,-0.326265,-1.414765,2.4181060000000003,-0.049806,0.987852,-0.147201,-0.089961,-0.955401,0.494837,0.179567,0.33215500000000003,-0.457276
738,-0.240394,-1.4150049999999998,2.510678,-0.036942,0.987889,-0.1507,0.139193,0.230428,0.784406,0.150833,-0.233067,-0.380123
739,-0.12733,-1.422393,2.608214,-0.018776,0.989008,-0.146662,-0.435183,1.04649,0.734483,0.024513,-0.471278,0.253443
740,-0.02336,-1.435781,2.685633,-0.003144,0.990899,-0.134569,-0.685429,1.69891,0.567393,-0.028915,-0.526895,0.5428029999999999
741,0.08123899999999999,-1.447509,2.753089,0.009979,0.99241,-0.12257,-0.485655,1.688795,0.260085,-0.185593,-0.163186,0.525143
742,0.132448,-1.455538,2.789638,0.015187,0.993365,-0.113996,-0.530529,0.227485,0.237075,-0.475469,0.349988,0.229062
743,0.190937,-1.466672,2.854631,0.019725,0.994584,-0.102048,-0.370372,-0.4686520000000001,0.226268,-0.335597,0.095748,0.167142
744,0.192069,-1.446818,2.859634,0.023606,0.992324,-0.121387,1.654868,0.064402,0.231185,-0.045853,0.007843000000000001,-0.034588
745,0.22605,-1.422144,2.88445,0.033195,0.988972,-0.14433800000000002,0.7425039999999999,0.8714379999999999,0.599792,0.402764,0.297177,-0.040477
746,0.348604,-1.408607,2.974758,0.055159000000000014,0.986876,-0.151767,0.230014,1.840183,0.941075,0.5348069999999999,0.33960100000000004,0.252658
747,0.470274,-1.389448,3.059448,0.081725,0.983601,-0.160777,1.003793,1.802847,1.082192,0.186006,0.354549,-0.106084
748,0.535296,-1.375706,3.116311,0.098885,0.98103,-0.166738,-0.264112,-0.182932,0.610135,0.050728,0.4138060000000001,-0.193522
749,0.596172,-1.377606,-3.100257,0.107799,0.981397,-0.158871,-0.193731,-0.101618,0.4609720000000001,0.04514,0.115298,0.413769
750,0.609822,-1.369451,-3.080753,0.114537,0.979798,-0.16394,0.257128,-0.564999,0.33332399999999995,0.0554,0.019744,0.099487
751,0.600738,-1.364947,-3.07059,0.115536,0.978888,-0.16861199999999998,0.128666,-1.082602,0.148287,0.044086,0.029794,-0.08910900000000001
752,0.5949810000000001,-1.363716,-3.056874,0.115239,0.978635,-0.170272,-0.126134,-0.801555,0.14935199999999998,0.08542899999999999,0.122973,-0.008927
753,0.596646,-1.364364,-3.044053,0.115166,0.978768,-0.16955599999999998,-0.04601,-0.416811,0.035119,0.190238,0.01905,-0.014557
754,0.5747979999999999,-1.363653,-3.058022,0.111813,0.978622,-0.17261600000000002,0.206752,-0.401963,-0.167165,0.187793,-0.07173099999999999,-0.137245
755,0.533514,-1.358142,-3.094739,0.107335,0.977474,-0.181724,0.630462,-0.14346,-0.178424,0.066096,-0.057017999999999985,-0.085427
756,0.475642,-1.344686,3.132323,0.102658,0.974546,-0.199303,0.981311,-0.23712600000000006,-0.235673,-0.086148,0.129153,-0.168708
757,0.406454,-1.326261,3.067688,0.095718,0.97025,-0.222381,1.277697,-0.325343,-0.276219,0.070145,-0.086827,0.028426
758,0.338866,-1.296035,3.0056700000000003,0.090191,0.96249,-0.255888,1.994301,-0.498853,-0.131054,0.153752,-0.25497,0.045408
759,0.273614,-1.25151,2.957016,0.08481699999999999,0.94946,-0.302213,2.554452,-1.285473,0.027691000000000004,0.13993,-0.30972,0.113782
760,0.192078,-1.193271,2.9106810000000003,0.07037,0.92958,-0.361842,3.272967,-2.143426,-0.226837,0.073979,-0.183883,0.25760900000000003
761,0.103896,-1.122823,2.865693,0.04492,0.901327,-0.430804,3.824576,-2.457143,-0.306972,-0.108794,-0.0074519999999999986,0.195086
762,0.021403,-1.05555,2.83721,0.010545,0.8701709999999999,-0.492636,3.726389,-2.897995,-0.265432,-0.15321500000000002,0.086616,0.34014
763,-0.044109,-0.991973,2.826344,-0.024121,0.8371069999999999,-0.546507,2.669946,-2.552039,-0.350167,-0.011035,0.023641,0.611128
764,-0.083333,-0.95157,2.813787,-0.048311,0.8143279999999999,-0.578391,1.7583950000000002,-0.770934,-0.616258,0.08339099999999999,0.026019,0.638694
765,-0.099235,-0.922237,2.798628,-0.059844000000000015,0.796955,-0.601067,1.131702,-0.032069,-0.4966,0.043761,0.24992,0.192895
766,-0.105639,-0.91208,2.791796,-0.064542,0.790779,-0.60869,0.049823,-0.117267,-0.098124,-0.045825,0.320412,0.290147
767,-0.109275,-0.928634,2.788932,-0.065317,0.8008029999999999,-0.595356,-1.360291,0.030084,-0.026977,-0.08601900000000001,0.288034,0.278461
768,-0.121262,-0.967802,2.773896,-0.068601,0.823641,-0.5629460000000001,-2.273017,-0.107386,-0.288482,-0.138309,-0.081103,0.011967
769,-0.14493699999999998,-1.01599,2.753706,-0.076083,0.850002,-0.521256,-2.523782,-0.453287,-0.149853,-0.125654,-0.216839,-0.00354
770,-0.171602,-1.067219,2.734322,-0.082403,0.875862,-0.475474,-2.689644,-0.488165,-0.075123,-0.069285,-0.219108,-0.002309
771,-0.205385,-1.125033,2.704213,-0.08793,0.902282,-0.422085,-3.1467080000000003,-0.207079,-0.174816,-0.01789,-0.282012,-0.036304
772,-0.241878,-1.1899110000000002,2.659002,-0.089042,0.928336,-0.360921,-3.461498,0.5681689999999999,-0.100028,-0.001,-0.335776,-0.132182
773,-0.266344,-1.258235,2.606416,-0.080935,0.951549,-0.296655,-3.517663,1.667461,-0.034531,0.040469,-0.279003,-0.157584
774,-0.310258,-1.317781,2.519867,-0.076425,0.968162,-0.238373,-2.914784,1.959017,-0.474006,-0.056005999999999986,0.6837850000000001,-0.330231
775,-0.371727,-1.355664,2.424833,-0.07754,0.976948,-0.198897,-1.584425,1.258769,-0.205306,-0.144429,0.916652,-0.311556
776,-0.356093,-1.370462,2.428553,-0.069373,0.98,-0.186513,-0.25922399999999995,0.323481,0.5037659999999999,-0.025811,0.363933,-0.380457
777,-0.28880900000000004,-1.377513,2.493639,-0.054707000000000006,0.981379,-0.184127,-0.222487,0.029134,0.820594,-0.003017,-0.28641700000000003,-0.456575
778,-0.241064,-1.393892,2.545313,-0.042013,0.984393,-0.17089400000000002,-0.957654,-0.060801,0.50579,0.06590900000000001,-0.431018,-0.055638
779,-0.204973,-1.419019,2.5660540000000003,-0.030774,0.988504,-0.14803,-1.255267,1.371977,0.501875,0.021848,-0.686441,0.44286
780,-0.13930499999999998,-1.445207,2.597266,-0.017393000000000002,0.992124,-0.124046,-1.221672,1.75513,0.293315,-0.006655,-0.302122,0.524513
781,-0.164193,-1.4633040000000002,2.548579,-0.017537,0.994228,-0.105843,-0.75308,0.720508,-0.31845,-0.433971,0.285847,0.378151
782,-0.153905,-1.471083,2.5615330000000003,-0.01526,0.995033,-0.098371,0.031857,-0.322561,0.3731,-0.248411,-0.071266,0.193616
783,-0.036897000000000006,-1.4570809999999998,2.680594,-0.004186,0.993541,-0.113393,0.687074,-0.006405,0.6614180000000001,0.225835,-0.08636100000000001,-0.00619
784,0.109692,-1.456941,2.811547,0.012437,0.993525,-0.112927,-0.186024,1.4980129999999998,0.8232389999999999,0.240935,0.217458,0.268368
785,0.292079,-1.443945,2.94011,0.036428,0.991965,-0.121154,0.991119,3.254754,0.843097,0.327616,0.499108,0.031706
786,0.394449,-1.424782,3.003415,0.055914,0.989359,-0.134323,0.304685,0.8736649999999999,0.6885979999999999,0.12182,0.101492,-0.393493
787,0.472292,-1.427362,3.08792,0.06502899999999999,0.989731,-0.127295,-0.667733,-0.500135,0.365236,-0.098247,0.32225,0.371802
788,0.5370699999999999,-1.430291,-3.134196,0.071649,0.990145,-0.120327,-0.099143,0.57527,0.26955300000000004,0.055487,0.513166,0.493923
789,0.581395,-1.423489,-3.102256,0.080607,0.98917,-0.122659,0.386009,0.430207,0.42802,0.292607,0.173626,-0.010382
790,0.588123,-1.417821,-3.08465,0.08454,0.988322,-0.126778,-0.084766,-1.038411,0.204423,0.231683,0.104894,-0.20565
791,0.58944,-1.415552,-3.065618,0.085953,0.987974,-0.128529,0.208769,-0.5461560000000001,0.191956,0.195327,0.029391000000000007,0.197484
792,0.585952,-1.407806,-3.06528,0.08973400000000001,0.986746,-0.135201,0.285343,-0.123515,0.194086,0.145465,-0.060126,-0.107704
793,0.575268,-1.402104,-3.072082,0.091344,0.985805,-0.14087,0.321741,-0.211594,0.07801699999999999,0.107615,-0.190456,0.006059
794,0.545957,-1.393908,-3.0988830000000003,0.091368,0.984396,-0.150387,0.513687,-0.087255,-0.013737,0.127565,-0.21195,-0.068958
795,0.50471,-1.382143,3.141095,0.090684,0.982258,-0.164154,0.8742790000000001,0.11296,-0.045658,0.179732,-0.015643999999999998,-0.181153
796,0.454379,-1.36149,3.090594,0.091196,0.978175,-0.186698,1.328109,-0.123582,0.106298,0.146643,-0.02737,0.017768
797,0.40465,-1.326339,3.045228,0.095286,0.970269,-0.222484,2.144235,-0.366024,0.35372800000000004,0.092809,-0.112999,0.205882
798,0.358032,-1.272217,3.008274,0.103084,0.955755,-0.275509,2.989898,-0.644943,0.6398659999999999,-0.11051500000000003,-0.13576300000000002,0.07685499999999999
799,0.299585,-1.198585,2.968877,0.10733,0.931525,-0.347478,3.851252,-1.305094,0.612546,-0.124435,-0.106666,-0.146342
800,0.240471,-1.121432,2.940699,0.103455,0.900723,-0.421894,3.751996,-1.944348,0.454575,-0.08357300000000001,-0.21661100000000005,0.088047
801,0.177482,-1.050068,2.923139,0.087837,0.8674569999999999,-0.4896970000000001,3.4543129999999995,-2.639133,0.236537,-0.104194,-0.054072,0.097836
802,0.107801,-0.989672,2.905136,0.059064,0.8358459999999999,-0.5457770000000001,2.710734,-2.513655,-0.12774000000000002,0.068591,-0.007201999999999998,0.374391
803,0.059819,-0.948772,2.892196,0.034835000000000005,0.812701,-0.581639,1.751947,-1.385897,-0.26941,0.159532,0.056989,0.519872
804,0.03778,-0.920118,2.878617,0.022879,0.795673,-0.605294,1.262723,-0.149309,-0.328891,0.14483,0.152401,0.5876239999999999
805,0.030716000000000007,-0.904362,2.869532,0.018985,0.786031,-0.617895,0.486076,-0.002272,-0.195636,-0.08292000000000001,0.383967,0.519278
806,0.026151,-0.907116,2.8641970000000003,0.016108,0.78773,-0.6158100000000001,-0.550933,-0.019885,-0.219948,-0.006403,0.362782,0.457485
807,0.021244,-0.937052,2.858499,0.012579,0.805816,-0.592032,-2.0847,-0.093651,-0.15686,-0.024649,0.21447800000000006,0.28205
808,0.017881,-0.99525,2.865026,0.009732,0.8388950000000001,-0.5442060000000001,-3.384976,-0.755728,0.305992,-0.14642,-0.331067,-0.482145
809,0.014253,-1.075504,2.889746,0.006774,0.8798299999999999,-0.47524,-4.400906,-1.416177,0.647982,-0.10559,-0.404931,-0.419108
810,0.004043,-1.168829,2.906123,0.001582,0.920293,-0.391226,-4.591286,-0.957069,0.021154,0.036504,-0.333822,-0.483316
811,-0.002609,-1.245755,2.900874,-0.000833,0.947638,-0.319347,-3.3299260000000004,0.497043,-0.009286,0.117609,-0.319769,0.075191
812,0.038104,-1.299513,2.914194,0.010208,0.963428,-0.267774,-2.381383,1.837565,0.132354,0.100067,-0.172611,0.08529400000000001
813,0.06917999999999999,-1.339135,2.903307,0.015871,0.973286,-0.229045,-1.765608,2.149209,-0.546338,-0.144472,0.299556,0.07241399999999999
814,0.039375,-1.372536,2.833541,0.007753,0.980411,-0.196811,-1.4855,1.549508,-0.801054,-0.463656,0.323087,-0.255185
815,0.013985,-1.395776,2.8009880000000003,0.002435,0.984723,-0.174111,-1.034116,-0.403027,-0.156602,0.02648,0.033801,-0.738853
816,-0.022295,-1.415529,2.788559,-0.003448,0.98797,-0.154606,-0.949413,-1.418844,-0.077797,0.150146,-0.216318,-0.397106
817,-0.047632,-1.432145,2.78654,-0.006581,0.990403,-0.138051,-0.718427,-0.923786,0.062051,0.178501,-0.277436,-0.084865
818,-0.048514,-1.441232,2.793987,-0.006266,0.991618,-0.129051,-0.324658,-0.184821,0.071332,0.116373,0.0032090000000000005,0.362373
819,-0.018368,-1.445883,2.819005,-0.002288,0.992209,-0.124567,-0.13439700000000002,0.5053300000000001,0.209577,-0.184617,0.264643,0.7298979999999999
820,0.001367,-1.440749,2.838077,0.000177,0.991556,-0.129681,0.521288,-0.26636,0.015388999999999996,-0.171488,0.125556,0.499371
821,0.005455,-1.421647,2.839407,0.000811,0.988898,-0.148594,1.109708,0.438511,0.123281,-0.14848499999999998,0.044961,0.23035100000000006
822,0.060599,-1.406674,2.894119,0.009895,0.986562,-0.16308599999999998,0.31061500000000003,-0.009198,0.622474,0.159691,0.250331,-0.060591999999999986
823,0.17236500000000002,-1.409006,2.998476,0.027628,0.98694,-0.158699,-0.288377,0.909905,0.932238,0.188986,0.225615,0.21605700000000005
824,0.30471,-1.405617,3.102078,0.049332,0.986389,-0.156855,0.091756,1.7243419999999998,0.726614,0.255127,0.338913,0.177241
825,0.402602,-1.401023,-3.11881,0.0662,0.985623,-0.15545,-0.076217,1.899353,0.529732,0.452797,0.586688,-0.021323
826,0.511983,-1.402293,-3.039965,0.082161,0.985837,-0.146202,-0.444679,1.140937,0.567654,0.349389,0.437228,-0.084511
827,0.579766,-1.402533,-2.979453,0.091745,0.985877,-0.140104,-0.085896,0.007251,0.31524,0.175894,0.294763,0.051985
828,0.5696,-1.401856,-2.977453,0.090676,0.985764,-0.141591,-0.049421,-0.88266,-0.146973,-0.062706,0.029495,-0.094371
829,0.513128,-1.4042940000000002,-3.020341,0.08136,0.98617,-0.14438900000000002,0.087878,-0.755268,-0.421779,-0.063354,-0.23527,-0.218129
830,0.466216,-1.417252,-3.048364,0.068749,0.988235,-0.13661900000000002,-0.6322180000000001,-0.990275,-0.435053,0.030159,-0.188019,0.195671
831,0.460804,-1.429434,-3.035234,0.06265,0.990025,-0.126196,-0.528017,-0.917635,-0.043449,0.2717,-0.297505,0.17485599999999998
832,0.485338,-1.435511,-2.993292,0.062919,0.990863,-0.119297,-0.32111300000000004,-0.676509,0.216197,0.4916,-0.35937800000000003,-0.004406
833,0.528613,-1.436235,-2.945409,0.06766,0.99096,-0.115844,-0.108007,0.013956,0.256325,0.486372,-0.355935,-0.114365
834,0.5563739999999999,-1.434901,-2.922471,0.071547,0.99078,-0.115044,-0.007455,0.334049,0.041904,0.1877,-0.118054,-0.116111
835,0.543484,-1.436104,-2.938644,0.06944199999999999,0.990943,-0.11493699999999997,0.002696,0.020555,-0.15738,0.112229,-0.198188,0.039085
836,0.511267,-1.4370459999999998,-2.967429,0.065247,0.991069,-0.1163,0.113552,-0.27583,-0.193614,0.150421,-0.209849,0.075849
837,0.463791,-1.434832,-3.006387,0.060635,0.990771,-0.121227,0.300112,-0.549177,-0.196234,0.375415,0.088269,-0.127521
838,0.379255,-1.427978,-3.077097,0.052696000000000014,0.989819,-0.132219,0.62357,-0.902274,-0.35375500000000004,0.385384,-0.06968300000000001,-0.313414
839,0.286142,-1.415353,-3.140286,0.043698,0.987943,-0.148524,0.779686,-1.857923,-0.198684,0.481738,-0.188657,-0.130178
840,0.17493499999999998,-1.400369,3.075753,0.029518,0.985512,-0.16701400000000002,0.9257,-2.411237,-0.48217,0.5011979999999999,-0.035882,0.216972
841,0.051721,-1.372958,2.998359,0.010161,0.980494,-0.196288,1.969314,-2.190922,-0.538188,0.362702,0.388922,0.5198510000000001
842,-0.014688,-1.321316,2.969836,-0.003626,0.969041,-0.246874,2.657109,-1.7172310000000002,0.019348,0.096766,0.667129,-0.106825
843,0.003145,-1.272574,3.023075,0.000924,0.95586,-0.29382,2.419869,-1.744967,1.032537,0.077338,0.645519,-0.070728
844,0.033946,-1.222652,3.101898,0.011578,0.940007,-0.340958,2.404143,-2.435894,1.469147,-0.228848,0.403819,0.203934
845,0.064551,-1.180606,-3.096723,0.024536,0.924837,-0.379572,1.773532,-2.278869,1.641866,-0.210495,0.34794400000000003,0.4107
846,0.091936,-1.1501,-3.026066,0.037494,0.912805,-0.406672,1.2382799999999998,-1.7062259999999998,1.425886,-0.067386,0.31714499999999995,0.246866
847,0.11351300000000003,-1.123476,-2.968225,0.048995,0.90161,-0.429767,1.260664,-1.353225,1.308085,0.172227,0.508257,0.311008
848,0.14436300000000002,-1.0977059999999998,-2.913707,0.065549,0.890164,-0.4509,0.923439,-0.732725,1.472646,0.201037,0.5688810000000001,0.200457
849,0.184812,-1.084309,-2.845771,0.085913,0.8839809999999999,-0.459562,0.006032,-1.187461,1.700761,0.046762,0.16939500000000002,-0.177599
850,0.226113,-1.093358,-2.769649,0.103017,0.888175,-0.447809,-1.224554,-1.392618,1.592015,-0.153554,0.111566,0.004602
851,0.261104,-1.113564,-2.690233,0.113963,0.897278,-0.426503,-1.393209,-2.055019,1.421839,-0.199168,0.17440799999999998,0.089268
852,0.279569,-1.128082,-2.6163,0.118211,0.903592,-0.411761,-0.936968,-2.486546,1.315552,-0.182451,-0.20654,0.59946
853,0.288659,-1.131779,-2.561444,0.120998,0.90517,-0.407465,-0.40377,-1.876964,0.79293,0.112156,-0.208209,0.35552399999999995
854,0.271683,-1.1468200000000002,-2.537735,0.110397,0.91146,-0.396298,-1.155041,-1.932137,0.058157000000000014,0.064835,-0.142478,0.198804
855,0.242146,-1.177814,-2.526081,0.091825,0.923771,-0.371773,-1.752655,-2.083094,-0.300473,0.003634000000000001,-0.062748,0.148293
856,0.189832,-1.217318,-2.537962,0.065319,0.938174,-0.339945,-1.93039,-2.082306,-0.875351,0.247593,0.17936400000000002,0.119608
857,0.08093600000000001,-1.257188,-2.606752,0.024941,0.951227,-0.307483,-1.71328,-2.285456,-1.674741,0.295311,0.033208999999999995,0.034732
858,-0.097797,-1.28715,-2.74249,-0.027326,0.960041,-0.278521,-1.419366,-2.609618,-2.115584,-0.018451,-0.058079,-0.165601
859,-0.245514,-1.305902,-2.8346240000000003,-0.06363300000000001,0.96512,-0.253956,-1.086999,-2.836234,-0.081214,0.095173,-0.120195,-0.389659
860,-0.305332,-1.328814,-2.83881,-0.072035,0.970865,-0.228544,-1.022714,-2.607038,0.088788,0.281294,-0.159341,-0.220491
861,-0.356075,-1.338055,-2.850766,-0.080403,0.973038,-0.216178,-0.097112,-1.566117,0.049055,0.388661,-0.213165,-0.111001
862,-0.341298,-1.337566,-2.813062,-0.077359,0.972925,-0.21779,0.296059,-0.872029,0.6245470000000001,0.405575,0.056784,-0.120344
863,-0.27326100000000003,-1.335881,-2.727732,-0.062816,0.972534,-0.224124,0.42771,-0.801863,1.078302,0.31483,-0.084198,-0.121411
864,-0.189464,-1.328942,-2.620662,-0.045106,0.970896,-0.235218,0.728316,-0.915603,1.022864,0.51439,-0.126245,0.134601
865,-0.129154,-1.315026,-2.548467,-0.032583999999999995,0.967469,-0.250883,0.8112689999999999,-0.177152,0.631528,0.32984,-0.038453,0.319456
866,-0.093897,-1.311212,-2.519959,-0.024066,0.966497,-0.255548,-0.315718,0.715975,0.170654,0.014895,0.362696,0.34841300000000003
867,-0.101413,-1.338321,-2.550948,-0.023324,0.973099,-0.229203,-1.990533,1.33893,-0.449662,-0.038962,0.8736870000000001,0.232179
868,-0.095408,-1.359823,-2.567845,-0.019949,0.977828,-0.208459,0.114783,0.974913,0.311129,-0.568842,0.49228,0.218469
869,-0.01259,-1.331012,-2.486486,-0.00299,0.971389,-0.237474,1.614614,-0.642231,0.888767,0.037139,0.187333,-1.109648
870,0.022508,-1.311469,-2.411267,0.005771,0.966563,-0.256365,0.48958,-2.278349,1.028284,0.08654400000000001,0.226537,-0.018309
871,0.001744,-1.320084,-2.372667,0.000433,0.968736,-0.248094,-0.801918,-3.31521,0.105125,0.094324,0.461119,0.262467
872,-0.050523,-1.332533,-2.360377,-0.011919,0.971749,-0.235714,-0.341379,-3.131452,0.371957,0.200747,0.110358,0.142742
873,-0.011335,-1.326944,-2.267725,-0.0027370000000000003,0.970415,-0.241427,0.474848,-2.059439,1.441302,0.477621,0.37483,0.6863739999999999
874,0.128397,-1.319204,-2.085106,0.031876,0.968517,-0.246897,-0.015824,-1.806707,2.864696,0.74034,0.392307,0.698741
875,0.34186,-1.316651,-1.844364,0.084285,0.967879,-0.236869,-0.971063,-0.247998,2.840002,0.06479299999999999,0.48253,0.72747
876,0.5751649999999999,-1.327153,-1.614536,0.13122799999999998,0.970466,-0.202425,-2.127028,1.0011370000000002,1.820857,-0.015916999999999997,0.283136,0.088015
877,0.8272649999999999,-1.356616,-1.391645,0.156452,0.977151,-0.143871,-2.913579,1.955442,0.68503,0.044247,0.186088,-0.213872
878,1.096545,-1.372288,-1.137601,0.17544300000000002,0.980362,-0.090059,-2.143533,0.348121,1.037504,0.026385,-0.137482,-0.396269
879,1.262421,-1.361711,-0.955264,0.197774,0.978221,-0.062998,-1.193702,-0.8775930000000001,1.174964,0.116084,-0.134654,-0.099294
880,1.3512030000000002,-1.347507,-0.845968,0.216121,0.975174,-0.048236,-0.840441,-1.072876,0.953355,0.126317,-0.201142,-0.168942
881,1.397401,-1.329394,-0.7764850000000001,0.23548,0.971004,-0.041245,-0.268884,-0.64977,1.208906,0.438745,-0.416057,0.292069
882,1.42559,-1.293917,-0.739474,0.270479,0.961913,-0.039554,-0.359543,-0.358498,1.972746,0.108962,0.002259,-0.017636000000000002
883,1.461837,-1.257684,-0.671659,0.306194,0.95138,-0.033495,-1.059906,-1.97918,1.8802,-0.179653,0.043844,-0.049482
884,1.518417,-1.228784,-0.577692,0.334924,0.942082,-0.017559,-1.491455,-0.965654,1.343913,-0.244119,-0.14065899999999998,0.09309
885,1.590306,-1.204216,-0.493157,0.35835700000000004,0.933558,0.006992,-1.476503,-0.18406,1.410313,0.497096,0.206853,0.77792
886,1.7077060000000002,-1.166266,-0.359683,0.389904,0.919287,0.053718,-3.339951,-0.561934,1.884891,-0.35580100000000003,-0.079947,-0.585441
887,1.794636,-1.120853,-0.23912600000000006,0.424065,0.9004719999999999,0.09654,-2.413308,-0.555191,1.527091,0.272698,0.19276,0.006533
888,1.7069880000000002,-1.1348280000000002,-0.256569,0.418378,0.906461,0.057335,-1.248577,-3.80264,1.441118,-0.649259,-0.106153,-0.622337
889,1.692341,-1.114398,-0.212018,0.437466,0.8976459999999999,0.053435,-0.937934,-2.264181,0.323957,-0.154889,0.034102,-0.128523
890,1.686986,-1.114633,-0.180001,0.437537,0.897749,0.051067,-0.614735,-1.378911,0.037728,0.186899,-0.569731,-0.124615
891,1.68337,-1.093021,-0.140404,0.456895,0.88802,0.051653,-1.289439,-2.137989,1.038116,-0.096406,0.013729,0.154142
892,1.698376,-1.07942,-0.07724500000000001,0.468005,0.881684,0.060034,-1.653506,-1.872249,0.167837,-0.200854,-0.333558,-0.291555
893,1.706177,-1.074225,-0.010473,0.472055,0.8792209999999999,0.0643,-1.380741,-3.262885,0.044406,-0.066385,-0.4904270000000001,-0.6503899999999999
894,1.6648459999999998,-1.073886,0.039058,0.474605,0.8790600000000001,0.044769,-0.985574,-4.4846629999999985,-0.320873,0.042943,-0.474351,-0.6547229999999999
895,1.569626,-1.083389,0.035895,0.468336,0.88355,-0.0005480000000000001,0.36145,-4.562113,-0.767496,0.370684,-0.591192,-0.995012
0,1.443573,-1.103011,0.29992800000000003,0.447265,0.8925690000000001,-0.057212,-0.297998,0.228842,-0.603889,-0.047439,-0.19509,-0.194543
1,1.449266,-1.114364,0.307347,0.437496,0.897631,-0.053432000000000014,-0.119239,-0.202755,-0.452536,0.053196,-0.27025,-0.349735
2,1.42651,-1.116849,0.287504,0.433958,0.8987229999999999,-0.063053,0.784878,-0.172373,-0.04354,0.071154,-0.474163,-0.257809
3,1.382342,-1.112301,0.23111,0.434762,0.896719,-0.08291699999999999,1.430821,0.693381,0.007932999999999999,-0.002068,-0.504782,0.016526
4,1.359921,-1.10774,0.168207,0.436788,0.894691,-0.093498,1.418158,2.306573,-0.072203,0.107264,-0.310783,-0.064599
5,1.332878,-1.101143,0.10101,0.439827,0.891725,-0.106663,1.608934,0.699078,0.027329000000000003,0.114784,-0.254121,-0.008342
6,1.2702719999999998,-1.093389,0.045008,0.438884,0.8881889999999999,-0.136015,1.076099,-1.069532,0.019464,0.169392,-0.236654,0.104979
7,1.2195280000000002,-1.090079,0.016579,0.434178,0.8866629999999999,-0.159111,0.4964,-1.2726309999999998,-0.102897,0.335125,-0.13376400000000002,0.210473
8,1.18144,-1.088333,-0.003669,0.429235,0.885855,-0.176116,0.51176,-0.881966,-0.04347,0.330866,-0.134237,0.102264
9,1.1414,-1.0833549999999998,-0.024022,0.425845,0.883534,-0.194991,0.557866,-1.214858,0.048077,0.31915,-0.119267,0.006499
10,1.09091,-1.077091,-0.050699,0.420364,0.880583,-0.218785,0.7546149999999999,-1.6456970000000002,-0.005544,0.154282,-0.080214,-0.129619
11,1.011139,-1.065951,-0.086742,0.4098810000000001,0.8752489999999999,-0.256779,1.261287,-2.744078,0.108361,0.194779,-0.025151,0.013188
12,0.912032,-1.042778,-0.137182,0.398397,0.863807,-0.308409,1.926103,-2.769491,0.29249899999999995,0.206965,0.067986,0.094039
13,0.797479,-1.008466,-0.195656,0.381527,0.846015,-0.372418,2.446819,-3.731005,0.26639,0.151401,0.582071,-0.110278
14,0.666349,-0.969543,-0.248808,0.349655,0.824628,-0.444668,2.259609,-4.6142949999999985,0.206394,0.152008,0.853519,0.283551
15,0.549167,-0.933166,-0.284801,0.310729,0.803509,-0.50776,2.032162,-4.004993,0.14634,0.155565,0.914707,0.492578
16,0.46142,-0.8974469999999999,-0.310999,0.277643,0.781737,-0.558391,1.855338,-3.137617,0.239065,0.202948,0.908204,0.55801
17,0.421378,-0.8647450000000001,-0.31553000000000003,0.265385,0.76093,-0.592078,1.397837,-0.894718,0.7777890000000001,-0.17641099999999998,1.208964,-0.339075
18,0.402442,-0.836047,-0.312836,0.262573,0.741999,-0.616841,1.208911,-1.178488,0.510845,-0.007659999999999998,0.8606159999999999,-0.35313
19,0.393154,-0.821995,-0.309303,0.260802,0.732506,-0.628822,0.192976,-0.220831,0.332675,-0.104781,-0.012596,0.263863
20,0.403648,-0.822413,-0.299209,0.267266,0.7327899999999999,-0.6257699999999999,-0.291991,0.333835,0.306144,-0.137506,0.045317,0.544563
