Unnamed: 0,attitude.roll,attitude.pitch,attitude.yaw,gravity.x,gravity.y,gravity.z,rotationRate.x,rotationRate.y,rotationRate.z,userAcceleration.x,userAcceleration.y,userAcceleration.z
0,0.8384719999999999,-0.901646,0.189667,0.461284,0.784349,-0.414745,0.127156,2.833157,-0.227154,-0.097468,-0.011766,0.079388
1,0.901238,-0.9003200000000001,0.177763,0.487205,0.7835260000000001,-0.38564,0.07683999999999999,4.1651440000000015,-0.281555,0.375618,0.492231,0.449682
2,0.993089,-0.914963,0.185652,0.5108560000000001,0.7925399999999999,-0.333025,-0.7941229999999999,3.879236,-0.488098,0.061608,0.260805,0.489626
3,1.0295299999999998,-0.921919,0.17109000000000002,0.517913,0.796763,-0.311345,0.701853,1.728788,-0.538987,-0.10797,0.133718,-0.024181
4,1.052038,-0.927877,0.15618800000000002,0.5206569999999999,0.800349,-0.29725100000000004,-0.233936,2.031018,-0.44977,-0.025372,-0.095515,0.276041
5,1.11332,-0.942199,0.162325,0.527546,0.8088529999999999,-0.259716,-0.33270500000000003,3.294765,-0.712726,-0.03899,-0.060348,0.26353000000000004
6,1.173755,-0.958119,0.140173,0.530325,0.8181109999999999,-0.222371,0.56193,4.232744,-1.089034,0.107797,0.175144,0.07294099999999999
7,1.235294,-0.974399,0.105758,0.53035,0.827365,-0.184924,0.460667,4.4611839999999985,-1.118876,0.278244,0.402311,-0.27621100000000004
8,1.309594,-0.99722,0.097554,0.524233,0.839966,-0.14013299999999998,-0.406197,3.76678,-1.212708,0.392912,0.465607,-0.12604200000000002
9,1.384298,-1.023511,0.106268,0.5113479999999999,0.8539399999999999,-0.096487,-0.515621,3.131301,-1.240432,0.468099,0.405688,0.014196
10,1.448037,-1.053365,0.11897,0.4909270000000001,0.869093,-0.060571000000000014,-0.541378,2.337842,-1.526946,0.571909,0.144396,0.345925
11,1.498329,-1.079723,0.145929,0.4703350000000001,0.881827,-0.034144,-1.096319,0.604807,-1.088494,0.4759850000000001,0.404672,0.150538
12,1.552813,-1.102495,0.209923,0.451298,0.892336,-0.008117000000000001,-1.6798369999999998,-0.4991850000000001,-1.023858,0.544322,0.178724,0.02159
13,1.5964040000000002,-1.118767,0.293737,0.436649,0.8995620000000001,0.011184,-1.92726,-2.0846310000000003,-0.730861,0.581158,0.098286,-0.296173
14,1.62864,-1.126124,0.377817,0.429443,0.902752,0.024868,-1.662218,-1.991559,-0.26018,0.568513,0.126393,-0.438519
15,1.659762,-1.125975,0.436546,0.428594,0.902688,0.038231,-0.969411,-0.469495,-0.008395,0.284235,0.018775,-0.59742
16,1.6874619999999998,-1.123664,0.4640220000000001,0.429442,0.901691,0.05033,-0.426252,0.33581700000000003,0.06273300000000001,0.07628,-0.066791,-0.705619
17,1.700861,-1.12287,0.477054,0.429439,0.901347,0.056172,-0.184709,-0.15248499999999998,-0.044981,0.025349,-0.282451,-0.553532
18,1.6822669999999995,-1.125672,0.464099,0.427898,0.902557,0.047897,0.624201,-0.430861,-0.128705,-0.072048,-0.442321,-0.31581
19,1.624808,-1.129227,0.4177770000000001,0.426735,0.904082,0.023071,1.163247,-1.016779,-0.059027,-0.268196,-0.548766,-0.370865
20,1.545807,-1.12879,0.360653,0.427621,0.903895,-0.010688,1.250901,-1.5290709999999998,0.104611,-0.285103,-0.596583,-0.337746
21,1.448461,-1.121123,0.287406,0.431423,0.900589,-0.053042999999999986,1.909033,-1.526066,0.380533,-0.205791,-0.465607,-0.06412899999999999
22,1.332877,-1.101061,0.185412,0.439899,0.8916879999999999,-0.106681,2.649438,-0.980221,0.697994,-0.149845,-0.291148,0.150016
23,1.22819,-1.067896,0.078613,0.453958,0.876188,-0.161914,2.898829,-0.340692,0.923244,-0.108743,0.128145,0.198993
24,1.148572,-1.029689,0.001295,0.46985,0.857139,-0.211077,2.17713,-0.829533,1.252114,-0.008546999999999999,0.57589,0.314257
25,1.094393,-0.980113,-0.026497000000000003,0.494915,0.8305600000000001,-0.2554,1.521763,-2.1802740000000003,2.344195,0.3046,0.8073640000000001,0.17896800000000002
26,1.032118,-0.919447,-0.019388,0.520406,0.7952670000000001,-0.311013,1.207185,-3.964684,2.900828,0.5596869999999999,1.083518,0.13781
27,0.953129,-0.85574,0.003462,0.534515,0.7550560000000001,-0.379716,1.080141,-5.533839,3.011978,0.428132,1.094859,0.082414
28,0.8465379999999999,-0.797516,0.0148,0.5231600000000001,0.715623,-0.462804,1.836822,-5.628872,2.146784,0.4109680000000001,0.685592,-0.016902
29,0.734115,-0.748012,0.000238,0.491087,0.680183,-0.5442279999999999,2.109773,-4.966657,0.942888,-0.398955,0.251519,-0.045768
30,0.625742,-0.716685,-0.016234000000000002,0.4416100000000001,0.6568890000000001,-0.611128,1.276553,-4.638454,0.309601,-0.435262,0.079897,0.192565
31,0.551974,-0.697335,-0.027854000000000004,0.401958,0.642177,-0.652716,0.96891,-2.468,0.188235,-0.360912,-0.114971,0.319799
32,0.516597,-0.6814479999999999,-0.029541,0.383612,0.629918,-0.675311,0.499948,-1.412703,0.4260930000000001,0.0404,0.019648,-0.142774
33,0.502343,-0.67705,-0.020612,0.375278,0.626496,-0.683132,-0.305848,-0.7940520000000001,0.394034,0.001019,0.039504,-0.053044000000000015
34,0.5031359999999999,-0.687659,-0.001623,0.372593,0.63473,-0.6769729999999999,-1.120636,-0.440919,0.435961,-0.108418,-0.021418,0.052461
35,0.515229,-0.709155,0.025514,0.373942,0.651192,-0.6603899999999999,-1.543206,-0.095977,0.321472,-0.412501,-0.434472,0.470602
36,0.5368689999999999,-0.734229,0.051222,0.379672,0.6700149999999999,-0.6379100000000001,-1.568713,0.439679,0.121918,-0.407855,-0.4800430000000001,0.4346930000000001
37,0.567964,-0.7603479999999999,0.072119,0.389772,0.689174,-0.610833,-1.470802,1.126217,-0.087649,-0.387667,-0.537471,0.371651
38,0.6143149999999999,-0.785316,0.089438,0.407609,0.7070489999999999,-0.577873,-1.354873,2.075606,-0.245085,-0.30961700000000003,-0.590701,0.600761
39,0.68288,-0.814693,0.110307,0.432944,0.7275149999999999,-0.532242,-1.80252,3.019294,-0.353038,-0.42768,-0.5817319999999999,0.6799930000000001
40,0.767451,-0.847202,0.134081,0.459686,0.7494310000000001,-0.4764890000000001,-1.532072,3.3846519999999995,-0.579149,-0.541488,-0.599635,0.569736
41,0.825644,-0.869165,0.133049,0.474407,0.76379,-0.437679,-0.271407,2.740243,-0.8931879999999999,-0.214733,-0.17316800000000002,-0.198887
42,0.858706,-0.870717,0.105264,0.487717,0.764791,-0.420983,0.98908,3.3294050000000004,-0.404439,0.26506,0.14469400000000002,0.036538
43,0.952989,-0.87865,0.098855,0.5202220000000001,0.769878,-0.369671,-0.8702479999999999,5.48778,-0.688316,0.612347,0.396336,0.625134
44,1.057651,-0.906989,0.109836,0.536767,0.787652,-0.302466,-0.409643,3.782495,-1.142249,-0.112924,0.256446,-0.182168
45,1.06944,-0.913882,0.067835,0.535522,0.79188,-0.293501,1.172169,1.583703,-0.633795,0.021455,0.299444,-0.337145
46,1.095533,-0.915857,0.059759000000000013,0.541605,0.793085,-0.278712,-0.370931,2.035406,-0.102496,0.097555,0.058462,0.156352
47,1.159697,-0.924254,0.063459,0.552237,0.798172,-0.240742,0.098793,3.5832910000000004,-0.5188729999999999,0.046732,0.046052,0.421665
48,1.212108,-0.932892,0.023994,0.557614,0.803345,-0.209053,1.232406,4.411151,-1.003398,0.084384,0.14775,0.027382
49,1.265599,-0.948622,-0.012104,0.55587,0.812613,-0.175122,0.278852,3.851506,-1.14821,0.177055,0.273645,-0.151844
50,1.330685,-0.975345,-0.008111,0.544792,0.827895,-0.133384,-0.74198,2.821169,-1.274729,0.479424,0.371705,0.196327
51,1.401415,-1.002436,0.008814,0.5305479999999999,0.842785,-0.090735,-0.731197,2.92309,-1.197873,0.686523,0.35149,0.30095500000000003
52,1.4739870000000002,-1.026837,0.034167,0.515105,0.855666,-0.050023000000000005,-0.900028,2.0177810000000003,-1.095343,0.648729,0.35627800000000004,0.16184
53,1.520456,-1.050086,0.076576,0.496866,0.867466,-0.025034,-1.294166,-0.209444,-1.086696,0.557211,0.346523,0.028757
54,1.547798,-1.074255,0.138535,0.476261,0.879236,-0.010955,-1.660234,-1.988947,-1.17884,0.5508689999999999,0.220069,-0.056748
55,1.569562,-1.0947639999999998,0.209487,0.4582560000000001,0.88882,-0.000566,-1.69538,-1.859219,-0.823534,0.43658,0.222508,-0.24092
56,1.617163,-1.104194,0.287576,0.449371,0.8931020000000001,0.020851,-1.751798,-0.649692,-0.35225500000000004,0.363297,0.15374200000000002,-0.362358
57,1.6811310000000002,-1.106185,0.357968,0.44535,0.8939959999999999,0.049338,-1.401314,0.348715,-0.184444,0.197319,-0.011779,-0.468253
58,1.73656,-1.107673,0.407814,0.440621,0.894661,0.073715,-0.961525,0.535083,-0.28522800000000004,0.013618,-0.210823,-0.7565
59,1.775021,-1.1101450000000002,0.4465020000000001,0.435294,0.8957629999999999,0.090154,-0.700593,0.006616,-0.229321,0.033059,-0.429912,-0.717275
60,1.7827669999999998,-1.111412,0.45646,0.433473,0.896325,0.093285,0.13063,-0.039558,-0.05895,0.06301799999999999,-0.550149,-0.31144
61,1.760745,-1.114611,0.437449,0.432603,0.897739,0.083175,0.563484,-0.559944,-0.034963,-0.190111,-0.556904,-0.271804
62,1.699991,-1.115178,0.398966,0.436351,0.8979889999999999,0.05669,1.0537459999999998,-1.6416560000000002,0.186696,-0.261348,-0.497781,-0.283115
63,1.603877,-1.109896,0.329989,0.444511,0.895652,0.01471,1.7914279999999998,-1.68815,0.517717,-0.290123,-0.47744,-0.33316100000000004
64,1.482169,-1.093972,0.227492,0.457159,0.8884569999999999,-0.040623,2.671805,-1.322865,0.846001,-0.245519,-0.353896,-0.132366
65,1.357825,-1.066794,0.100247,0.472023,0.875657,-0.102075,3.415769,-0.06946000000000001,0.8399770000000001,-0.158028,-0.142975,0.214349
66,1.261157,-1.034631,-0.025502,0.48655,0.8596739999999999,-0.155662,3.254729,0.801801,0.746937,-0.18525,0.196143,0.266593
67,1.1965709999999998,-0.999903,-0.104983,0.502985,0.841419,-0.197538,1.997934,-0.686856,1.153468,-0.120264,0.6750149999999999,0.100477
68,1.124201,-0.953899,-0.133609,0.5217689999999999,0.8156770000000001,-0.249856,1.535962,-3.550347,2.092877,0.27741,0.8746,-0.13913699999999998
69,1.0095120000000002,-0.898058,-0.145609,0.527525,0.782118,-0.331676,1.7182650000000002,-6.09514,2.4296290000000003,0.396105,0.878832,0.055751
70,0.880042,-0.8389120000000001,-0.141127,0.515081,0.743917,-0.425769,1.615264,-6.539751,2.350431,0.471262,0.817225,0.169696
71,0.770884,-0.779722,-0.14766600000000002,0.495479,0.7030810000000001,-0.510075,2.718648,-4.4183330000000005,1.813831,0.07663400000000001,0.30964400000000003,-0.294704
72,0.66472,-0.7160770000000001,-0.17284000000000002,0.4653350000000001,0.6564300000000001,-0.59377,2.815874,-4.840935,1.119639,0.106778,0.356296,-0.211009
73,0.543376,-0.671655,-0.201874,0.404726,0.622282,-0.670046,2.438949,-4.732337,-0.135089,-0.346316,0.030382,0.13633900000000002
74,0.452604,-0.63217,-0.244708,0.352798,0.590897,-0.725517,2.467396,-2.550518,-0.725208,-0.420669,-0.11554,-0.06498
75,0.3836,-0.5999399999999999,-0.284913,0.308904,0.564593,-0.7653840000000001,1.916698,-2.246601,-0.858699,-0.206838,-0.092837,-0.005124
76,0.331504,-0.577902,-0.313752,0.272613,0.546268,-0.792006,1.104257,-1.4562620000000002,-0.663493,-0.001312,-0.060641,0.107482
77,0.303206,-0.575286,-0.327234,0.25052,0.544075,-0.800763,-0.137049,-0.721705,-0.532099,-0.120943,-0.035072000000000006,0.174207
78,0.289721,-0.5929770000000001,-0.33428,0.236913,0.558832,-0.794719,-1.10695,-0.443734,-0.474069,-0.208639,-0.024378,0.224361
79,0.2854,-0.622078,-0.331833,0.2288,0.582725,-0.779796,-1.574163,-0.165115,-0.214907,-0.27720100000000003,-0.08808099999999999,0.32098000000000004
80,0.296364,-0.657814,-0.319046,0.231104,0.6113890000000001,-0.756832,-2.057378,0.407351,0.100383,-0.27872600000000003,-0.411895,0.293041
81,0.331096,-0.702347,-0.293802,0.248142,0.646011,-0.721869,-2.653285,1.258437,0.367526,-0.297001,-0.437042,0.170188
82,0.38811,-0.752197,-0.2613,0.276333,0.683245,-0.675882,-2.73454,1.998711,0.195095,-0.185085,-0.510424,0.066965
83,0.447369,-0.79735,-0.231022,0.302213,0.715507,-0.629855,-2.267393,1.778387,0.009565,0.06730900000000001,-0.472724,-0.723722
84,0.4893810000000001,-0.821018,-0.211348,0.320348,0.7318399999999999,-0.601488,-0.61154,1.03253,0.213299,0.049174,-0.489057,-0.752089
85,0.4961350000000001,-0.8024859999999999,-0.202421,0.330803,0.719086,-0.6111340000000001,0.970626,-0.339643,0.996296,0.807182,-0.319076,-0.6561239999999999
86,0.523733,-0.7968729999999999,-0.17283900000000002,0.349555,0.715174,-0.605259,-0.51457,0.666479,0.826536,0.068078,-0.23501,0.83588
87,0.583075,-0.803064,-0.145769,0.38239,0.719487,-0.579755,-1.069178,2.556057,0.29788000000000003,-0.505696,-0.06653300000000001,1.229169
88,0.602025,-0.8231139999999999,-0.155937,0.38506,0.733266,-0.560401,0.170774,-0.5031909999999999,-1.629429,-1.826847,0.499644,-0.60328
89,0.578126,-0.812905,-0.195671,0.375629,0.726287,-0.5756819999999999,0.844037,2.318367,0.004969,0.186902,0.29028400000000004,0.908934
90,0.68135,-0.817703,-0.183054,0.430748,0.729577,-0.5312,-1.127142,5.119083,0.08909299999999999,-0.040428,0.198646,0.666149
91,0.783928,-0.834341,-0.171046,0.474241,0.740854,-0.475637,-0.5587270000000001,4.390219,-0.349315,-0.046354,0.335303,0.19515
92,0.868611,-0.845513,-0.16630599999999998,0.506421,0.748311,-0.428448,-0.616682,3.910759,-0.277535,0.10361,0.461634,0.206768
93,0.95176,-0.862556,-0.152507,0.529791,0.7595069999999999,-0.377452,-0.948651,3.435482,-0.481138,0.043604,0.288024,0.185542
94,1.025159,-0.879066,-0.143372,0.54525,0.770143,-0.331031,-0.465266,3.378706,-0.554601,-0.015297,0.136732,0.146903
95,1.09929,-0.8948809999999999,-0.14693299999999998,0.557348,0.780135,-0.284171,-0.319259,4.190244,-0.896452,0.05311,0.235353,-0.02279
96,1.198327,-0.913716,-0.14340799999999998,0.568926,0.791779,-0.222283,-0.562113,5.214982,-0.67193,0.19142,0.063614,0.10148
97,1.3226790000000002,-0.927185,-0.132572,0.581712,0.799934,-0.147369,-0.458067,5.971396,-0.513008,0.192474,0.004159,0.25711
98,1.4470120000000002,-0.936278,-0.122512,0.5882539999999999,0.805357,-0.07319099999999999,-0.377527,5.581461,-0.305779,0.017687,-0.048918,0.219141
99,1.563379,-0.941324,-0.105223,0.5887020000000001,0.808338,-0.004367,-0.660683,4.8715150000000005,-0.20857,0.022641,-0.157703,0.072268
100,1.669534,-0.948321,-0.077952,0.580208,0.812438,0.057475,-0.711379,3.699117,-0.548185,0.050972,-0.167616,-0.13676
101,1.731615,-0.962593,-0.06679700000000001,0.564021,0.8206760000000001,0.091495,0.011946,2.046314,-0.768546,0.003942,-0.153592,-0.114292
102,1.754776,-0.974516,-0.057527,0.552091,0.8274299999999999,0.102735,-0.39262,0.065493,-0.565871,0.019457,0.004494,-0.124876
103,1.776152,-0.980792,-0.025214,0.544675,0.830938,0.113452,-1.03355,-0.194951,-0.414054,0.02608,-0.086798,-0.118579
104,1.815056,-0.981169,0.013942,0.539546,0.831148,0.134474,-0.956998,0.698647,-0.172178,-0.052943,-0.171007,-0.052657
105,1.860776,-0.981124,0.03308,0.532872,0.831123,0.159004,-0.288419,1.825427,-0.14865599999999998,-0.174077,-0.071586,-0.136772
106,1.906661,-0.984965,0.043587,0.522,0.833253,0.182226,-0.251686,1.7259759999999995,-0.351234,-0.281766,-0.005692,-0.173375
107,1.948941,-0.992307,0.060866,0.5081319999999999,0.83729,0.201862,-0.353117,1.236185,-0.58846,-0.289016,-0.182199,-0.093128
108,1.98531,-1.001192,0.080574,0.493627,0.8421139999999999,0.2172,-0.231726,0.906752,-0.627782,-0.209081,-0.255536,-0.093146
109,2.017749,-1.011099,0.09327,0.478776,0.847416,0.229478,-0.110097,1.204366,-0.5674939999999999,0.13636700000000002,-0.227405,-0.182496
110,2.0549470000000003,-1.018009,0.107923,0.464716,0.8510639999999999,0.244394,-0.237762,1.196708,-0.41242,0.237356,-0.132726,-0.17011400000000002
111,2.087628,-1.019481,0.121288,0.4553930000000001,0.851836,0.258828,-0.300063,1.051291,-0.224664,0.247839,-0.242583,-0.248178
112,2.11421,-1.019709,0.129076,0.448186,0.8519559999999999,0.27074000000000004,-0.077053,0.980627,-0.062782,0.282435,-0.383572,-0.346866
113,2.129082,-1.0211290000000002,0.124918,0.443084,0.852699,0.27673400000000004,0.268748,0.868244,0.035917000000000004,0.345933,-0.33226700000000003,-0.327439
114,2.130352,-1.0246540000000002,0.107005,0.440182,0.854535,0.2757,0.599919,0.8293950000000001,0.139762,0.4215430000000001,-0.235272,-0.205036
115,2.119989,-1.027792,0.077646,0.440726,0.85616,0.269722,0.79352,0.663866,0.341083,0.438561,-0.25649,-0.184929
116,2.095611,-1.030083,0.037541000000000005,0.445471,0.857342,0.257916,1.0614709999999998,0.371522,0.489676,0.480829,-0.13853,-0.247159
117,2.046506,-1.029931,-0.020769,0.4577100000000001,0.8572639999999999,0.235798,1.448589,-0.164277,0.943856,0.33460300000000004,0.247885,0.115276
118,1.973925,-1.019633,-0.102768,0.4817,0.851916,0.205438,1.904356,0.054169000000000016,1.597307,0.225957,0.633741,0.252203
119,1.893911,-1.003224,-0.204646,0.509767,0.843209,0.170695,2.397539,0.170478,1.654014,0.14460599999999998,0.721275,-0.575038
120,1.783007,-0.994887,-0.322963,0.532381,0.8386979999999999,0.114704,3.429114,-1.022366,0.960927,-0.0217,0.573763,-0.419651
121,1.638736,-0.995696,-0.470918,0.542664,0.8391379999999999,0.036925,4.146934,-0.779317,0.29799000000000003,-0.079499,0.950047,-0.174178
122,1.516707,-0.995005,-0.607877,0.543702,0.8387620000000001,-0.029437,3.29935,-0.265828,-0.038669,-0.384752,1.37004,-0.005353
123,1.419428,-0.988645,-0.7102350000000001,0.543535,0.835282,-0.08290800000000001,2.6673720000000003,-0.8769049999999999,0.14463900000000002,-0.7298,0.8773040000000001,0.14344
124,1.310628,-0.979052,-0.786558,0.539038,0.8299690000000001,-0.143493,1.567755,-3.5728949999999995,-0.023025,-0.596441,0.495227,0.068999
125,1.202802,-0.97511,-0.816607,0.523513,0.8277629999999999,-0.201844,1.201543,-3.990477,0.5635600000000001,-0.214874,0.114329,0.20009
126,1.121942,-0.94797,-0.852815,0.525551,0.812233,-0.253128,2.186559,-1.998536,1.075329,-0.035775,0.051964,0.268921
127,1.058741,-0.909179,-0.903591,0.535591,0.789,-0.301034,2.138939,-0.779474,1.020023,0.016121,-0.018919,0.076562
128,1.017323,-0.874725,-0.937777,0.545478,0.767367,-0.337048,1.604223,-0.8118609999999999,0.792003,-0.198661,-0.058092999999999985,0.157681
129,0.975904,-0.852684,-0.963778,0.544932,0.753049,-0.368736,1.158481,-1.263167,0.287403,-0.344722,-0.227475,0.350547
130,0.928039,-0.839883,-0.98859,0.534337,0.7445649999999999,-0.400132,1.008537,-1.5179129999999998,-0.07865,-0.388128,-0.360593,0.449144
131,0.8767729999999999,-0.831184,-1.017239,0.518091,0.73873,-0.431115,1.0228780000000002,-1.4465629999999998,-0.351037,-0.427088,-0.351889,0.413262
132,0.834865,-0.827334,-1.044434,0.501678,0.7361300000000001,-0.454348,0.628184,-0.8661629999999999,-0.49768,-0.371048,-0.307251,0.25114699999999995
133,0.811316,-0.8320709999999999,-1.060689,0.488307,0.7393270000000001,-0.463629,0.043907,-0.38338,-0.577155,-0.285716,-0.310067,0.222738
134,0.806534,-0.842675,-1.071205,0.480397,0.746426,-0.460508,-0.177972,0.502923,-0.649275,-0.260167,-0.291821,0.248136
135,0.8217129999999999,-0.855909,-1.078332,0.480055,0.755167,-0.446396,-0.34530500000000003,1.278921,-0.6236649999999999,-0.259825,-0.300562,0.234024
136,0.849317,-0.8706719999999999,-1.081345,0.483769,0.7647619999999999,-0.425566,-0.4656,1.586095,-0.6131479999999999,-0.17754,-0.081184,-0.058016
137,0.885497,-0.887193,-1.079191,0.488996,0.775302,-0.399737,-0.671708,1.848593,-0.544421,-0.19647,-0.073978,-0.104124
138,0.938091,-0.904195,-1.065863,0.4986310000000001,0.785928,-0.365629,-0.963199,2.25035,-0.32905500000000004,-0.157612,-0.16546,-0.23015
139,1.005699,-0.9183,-1.04131,0.512778,0.794571,-0.325139,-0.98369,2.474097,-0.054952,-0.089561,-0.211105,-0.455088
140,1.070066,-0.9245,-1.021464,0.528299,0.79832,-0.289112,-0.432201,2.319423,0.051648,0.06948,-0.135692,-0.7147789999999999
141,1.104451,-0.925014,-1.02421,0.537559,0.798629,-0.270595,0.353329,1.478037,-0.141544,0.220147,0.008805,-0.730092
142,1.106064,-0.92165,-1.045874,0.5403939999999999,0.7966,-0.27093,0.770742,0.6698310000000001,-0.05534,0.24284,0.137436,-0.6817979999999999
143,1.095353,-0.909967,-1.066868,0.5456979999999999,0.789484,-0.280943,0.8568469999999999,0.091442,0.388246,-0.009977,0.205588,-0.413362
144,1.082717,-0.892648,-1.0781459999999998,0.554099,0.778736,-0.294185,0.540834,-0.311567,0.745478,-0.215354,-0.072391,-0.325017
145,1.082654,-0.8758790000000001,-1.0707870000000002,0.5655359999999999,0.768107,-0.300302,0.039873,-0.136458,0.812257,-0.214095,0.024542,-0.03974
146,1.085847,-0.8686229999999999,-1.088469,0.571408,0.76344,-0.301085,1.078677,1.7180400000000002,-0.582234,0.233188,1.444613,0.321669
147,1.108522,-0.88936,-1.139894,0.5637939999999999,0.7766689999999999,-0.28093,0.7555890000000001,3.4208160000000003,-2.014885,0.35953,1.95235,0.351792
148,1.143567,-0.89746,-1.163177,0.567547,0.781745,-0.258388,0.639135,2.1431400000000003,0.316799,-0.779293,0.333367,0.651836
149,1.16971,-0.877743,-1.179082,0.5881850000000001,0.769299,-0.249434,0.752257,1.930792,0.574234,-0.681828,0.140125,0.374358
150,1.206222,-0.877442,-1.185885,0.597115,0.769107,-0.227879,-0.023785,2.162702,-0.536025,-0.793709,0.009122,-0.02859
151,1.264547,-0.8960239999999999,-1.1871120000000002,0.5956520000000001,0.780849,-0.188343,-0.351729,3.833575,-0.914335,-0.316294,-0.148723,0.620731
152,1.392481,-0.916497,-1.170656,0.598953,0.793475,-0.107949,-0.36521,6.367609,-0.8375229999999999,-0.029861,-0.149264,0.926354
153,1.538107,-0.928773,-1.166351,0.5984970000000001,0.800886,-0.019572,-0.17019,7.225928999999999,-0.401426,0.154387,0.087466,0.7362770000000001
154,1.689488,-0.932439,-1.148459,0.591684,0.803076,0.070559,-0.74507,6.579182,-0.138626,0.16786800000000002,0.116907,0.468701
155,1.814874,-0.923479,-1.125371,0.585175,0.797704,0.145734,-0.5045930000000001,4.374318,0.653159,0.367248,-0.141729,-0.07739
156,1.85477,-0.910963,-1.147786,0.588435,0.790094,0.171742,0.958519,2.129851,0.6993699999999999,0.511556,-0.22677,-0.33121100000000003
157,1.865951,-0.909185,-1.177519,0.587821,0.789003,0.17871800000000002,0.568411,1.699711,0.181245,0.10839100000000003,-0.176378,-0.189125
158,1.884937,-0.905918,-1.182083,0.586771,0.786992,0.190641,-0.027858,0.838669,0.24014,-0.247018,-0.015752000000000002,0.004869
159,1.898566,-0.9006850000000001,-1.192854,0.588009,0.7837529999999999,0.199943,0.422026,1.408465,0.414536,-0.187786,-0.022049000000000003,0.132714
160,1.921894,-0.896291,-1.215748,0.586413,0.7810159999999999,0.214787,0.671719,2.385443,0.434256,-0.10036,-0.062052,-0.092732
161,1.950247,-0.89502,-1.240548,0.58101,0.780222,0.231693,0.692253,2.276278,0.271088,0.032683,-0.084909,-0.282856
162,1.976433,-0.895753,-1.261675,0.5742189999999999,0.78068,0.2466,0.5636680000000001,2.089491,0.207404,0.15704300000000002,-0.12859600000000002,-0.141574
163,2.002397,-0.895702,-1.278147,0.56766,0.780648,0.261441,0.420328,1.777826,0.216416,0.177869,-0.179558,-0.093472
164,2.02319,-0.8948790000000001,-1.289399,0.562679,0.780133,0.273468,0.220108,1.323886,0.156847,0.194462,-0.183224,-0.304154
165,2.041157,-0.8946219999999999,-1.294841,0.5578529999999999,0.7799729999999999,0.283624,0.11675,1.000864,0.041171,0.13758099999999998,-0.140355,-0.450021
166,2.055984,-0.8965799999999999,-1.299254,0.552235,0.781196,0.29115100000000005,0.239396,0.902785,-0.046509,0.155056,-0.15299200000000002,-0.406614
167,2.06694,-0.9004469999999999,-1.310473,0.546351,0.783605,0.295743,0.465796,1.033759,0.037157,0.328924,-0.129064,-0.313489
168,2.07282,-0.90252,-1.327024,0.543177,0.784891,0.298168,0.535574,0.856931,0.240834,0.436574,-0.085047,-0.319912
169,2.066491,-0.902831,-1.354029,0.5448390000000001,0.785083,0.294609,0.90095,0.7173350000000001,0.467891,0.545554,-0.045673000000000005,-0.340721
170,2.045651,-0.90437,-1.397898,0.5497850000000001,0.786036,0.282638,1.442937,0.6126520000000001,0.6021340000000001,0.338902,-0.05015,-0.334152
171,2.002324,-0.909563,-1.460233,0.557796,0.789235,0.256849,2.091245,0.072368,0.620174,0.237355,-0.006231,-0.376295
172,1.931965,-0.91491,-1.5427030000000002,0.570516,0.792508,0.21550500000000006,2.606432,-0.437422,0.853025,0.082636,0.517215,-0.115911
173,1.836086,-0.913511,-1.6497529999999998,0.589597,0.7916529999999999,0.16019,3.465473,-0.590675,1.13696,-0.132367,0.687778,-0.088702
174,1.711613,-0.90909,-1.78742,0.608382,0.788945,0.086241,4.372131,-0.990706,1.0220280000000002,-0.359221,0.6452899999999999,-0.394118
175,1.561052,-0.90075,-1.949252,0.620993,0.7837930000000001,-0.006051,5.339641,-1.163125,0.411575,-0.273337,0.729574,-0.212729
176,1.402209,-0.8941979999999999,-2.121466,0.617267,0.7797069999999999,-0.105061,5.143402,-1.223186,-0.381271,-0.23151,1.075533,-0.083843
177,1.267186,-0.8838360000000001,-2.253105,0.605184,0.773177,-0.189602,3.334573,-2.194056,-0.310409,-0.257268,1.279175,0.22375100000000006
178,1.163218,-0.85795,-2.312364,0.600417,0.7565029999999999,-0.259233,1.7402830000000002,-3.421587,1.153106,0.115327,1.004452,0.38379
179,1.055547,-0.80415,-2.338112,0.603657,0.720241,-0.341834,2.366271,-5.126671,2.367823,0.817562,0.345646,0.230567
180,0.917248,-0.73487,-2.3799080000000004,0.589032,0.670491,-0.451091,3.484514,-5.342844,1.6463150000000002,0.799854,0.204006,0.359752
181,0.786342,-0.674118,-2.431248,0.552954,0.624208,-0.5519109999999999,3.250342,-4.448944,0.751568,0.604532,0.107847,0.40088
182,0.694968,-0.631425,-2.461781,0.516891,0.590295,-0.61998,1.888996,-3.280946,0.486326,-0.468307,-0.294473,0.377945
183,0.628583,-0.602378,-2.4723740000000003,0.4845060000000001,0.566603,-0.6664939999999999,1.285338,-3.134373,0.585539,-0.591958,-0.394988,0.379583
184,0.555871,-0.578637,-2.48219,0.441781,0.546883,-0.711159,1.173972,-3.236427,0.096714,-0.507791,-0.344048,0.330895
185,0.490692,-0.563525,-2.500484,0.398373,0.53417,-0.745629,0.927916,-2.54505,-0.4912760000000001,-0.347393,-0.173727,0.490608
186,0.431984,-0.556084,-2.523915,0.355591,0.527864,-0.771307,0.738433,-2.084927,-0.840361,-0.383652,-0.159822,0.52358
187,0.392495,-0.549758,-2.550314,0.326135,0.5224810000000001,-0.787813,0.703904,-0.7722859999999999,-0.865785,-0.351434,-0.216283,0.47777
188,0.375715,-0.5462640000000001,-2.572607,0.313538,0.5194979999999999,-0.794868,0.403992,-0.025789,-0.80688,-0.252258,-0.231611,0.187904
189,0.370042,-0.545992,-2.592704,0.309075,0.519266,-0.796765,0.256204,0.330506,-0.801959,-0.200585,-0.212458,-0.002231
190,0.368788,-0.549326,-2.61087,0.307449,0.522113,-0.795533,0.043038,0.421621,-0.7587,-0.15304600000000002,-0.236987,-0.059997
191,0.367233,-0.556287,-2.625794,0.3049,0.528036,-0.7925989999999999,-0.17471,0.23778,-0.6830729999999999,-0.043425,-0.106787,-0.21855500000000005
192,0.367184,-0.566901,-2.633604,0.302832,0.5370199999999999,-0.787339,-0.5208020000000001,0.229167,-0.36074,0.103144,-0.092471,-0.256866
193,0.377268,-0.581965,-2.6285130000000003,0.30774,0.549667,-0.7766350000000001,-0.939005,0.451433,0.095389,0.082762,-0.052734,-0.281058
194,0.397558,-0.6008720000000001,-2.612498,0.319353,0.565362,-0.760513,-1.182393,0.624038,0.298567,-0.122133,-0.009148,-0.37175
195,0.42071,-0.619499,-2.5979240000000003,0.332514,0.580627,-0.743173,-0.992765,0.826626,0.088124,-0.103128,-0.119217,-0.542746
196,0.4440270000000001,-0.637375,-2.588718,0.345236,0.5950880000000001,-0.725729,-1.118557,0.89707,-0.102989,-0.049704000000000005,-0.346583,-0.071131
197,0.477948,-0.672279,-2.573791,0.359873,0.622771,-0.694729,-2.153185,1.637852,-0.375016,-0.39564,-0.048109,0.366222
198,0.5171060000000001,-0.703619,-2.575592,0.376957,0.646981,-0.6628109999999999,-0.695559,1.950883,-1.064921,-0.385868,0.282264,-0.29657
199,0.52637,-0.725772,-2.59246,0.375787,0.663713,-0.646737,-0.592383,0.108156,-0.937925,0.282706,1.685484,-1.015906
200,0.5550729999999999,-0.7342920000000001,-2.588794,0.391199,0.6700619999999999,-0.630857,-0.8124560000000001,2.565288,0.16513599999999998,0.480139,0.359449,0.939634
201,0.639954,-0.75621,-2.558298,0.434398,0.6861689999999999,-0.583498,-1.720186,3.445735,0.28692199999999995,-0.399639,-0.29675,0.7185229999999999
202,0.718152,-0.78103,-2.536628,0.4673,0.7040109999999999,-0.534788,-1.158393,2.819397,-0.476403,-0.493393,-0.17541600000000002,0.336699
203,0.762562,-0.800321,-2.545057,0.481109,0.71758,-0.5036,-0.252863,2.676813,-1.034985,-0.098816,0.07117799999999999,0.573242
204,0.826357,-0.8210280000000001,-2.558394,0.5011979999999999,0.731847,-0.461736,-0.585121,4.273607,-0.999828,0.009239,0.208155,0.657766
205,0.924535,-0.844015,-2.555342,0.530471,0.747317,-0.400146,-0.901095,4.993691,-0.7156060000000001,0.147782,0.22993200000000005,0.647568
206,1.029151,-0.8636959999999999,-2.54808,0.556645,0.760249,-0.334916,-0.575623,4.818728,-0.6671739999999999,0.246914,0.154745,0.35495
207,1.116789,-0.875948,-2.548711,0.575408,0.768151,-0.280803,-0.127075,4.158069,-0.476256,0.169343,0.124885,0.004817
208,1.18595,-0.8831540000000001,-2.5546,0.588292,0.772744,-0.238283,0.128419,3.441893,-0.35391300000000003,0.019344,0.02381,-0.194883
209,1.239218,-0.8927709999999999,-2.570678,0.593089,0.778813,-0.204195,0.475348,3.248708,-0.8276690000000001,-0.148982,-0.11794,-0.042967
210,1.281791,-0.906905,-2.601378,0.590631,0.787601,-0.175612,0.759606,3.422031,-0.994684,-0.178095,-0.23160100000000006,-0.02234
211,1.330317,-0.921651,-2.631668,0.5871109999999999,0.7966,-0.143974,0.661308,3.714972,-0.907084,-0.070143,-0.210648,0.197716
212,1.3849280000000002,-0.933381,-2.656222,0.584871,0.803636,-0.109978,0.501846,3.656798,-0.612239,-0.086976,-0.126512,0.28838400000000003
213,1.442338,-0.943518,-2.670056,0.5821069999999999,0.809628,-0.07518999999999999,0.25455500000000003,3.257018,-0.588885,0.017304,-0.187313,0.284053
214,1.492985,-0.955668,-2.67655,0.575317,0.816699,-0.044857,0.031546,2.481439,-0.647133,0.110214,-0.251331,0.177731
215,1.526598,-0.970721,-2.677723,0.564153,0.825293,-0.024951,0.015819999999999997,1.181496,-0.822901,0.30198200000000003,-0.042884,0.011599
216,1.533467,-0.987008,-2.677324,0.550805,0.8343809999999999,-0.020571,-0.172285,-0.023963,-0.768191,0.316551,0.053757000000000006,-0.004972
217,1.546885,-1.000896,-2.657169,0.5393939999999999,0.8419549999999999,-0.0129,-0.757738,-0.311126,-0.642658,0.334706,0.094065,-0.039544
218,1.557316,-1.0132,-2.629956,0.5291,0.8485290000000001,-0.007133,-0.699232,-0.7696189999999999,-0.587182,0.379911,0.101178,-0.298364
219,1.568059,-1.0239049999999998,-2.602479,0.520033,0.854145,-0.001423,-0.731246,-0.441773,-0.494891,0.31561500000000003,0.10786099999999997,-0.237834
220,1.590916,-1.033196,-2.573143,0.511972,0.8589399999999999,0.010302,-0.794922,0.134656,-0.4683,0.233557,0.100838,-0.169726
221,1.635263,-1.041173,-2.533472,0.504159,0.8629969999999999,0.032547,-1.102126,0.6862189999999999,-0.405991,0.306541,0.107156,-0.236358
222,1.688244,-1.045759,-2.4906580000000003,0.497792,0.8653049999999999,0.058735,-0.972243,0.760853,-0.268447,0.32339,0.147054,-0.324696
223,1.7256509999999998,-1.049737,-2.460691,0.491842,0.867292,0.076779,-0.560613,0.40711,-0.340963,0.29458,0.220461,-0.399639
224,1.737673,-1.053784,-2.456362,0.487419,0.8693,0.082102,0.265615,0.496004,-0.110979,-0.069267,0.5174489999999999,-0.323908
225,1.721643,-1.058493,-2.484465,0.48462,0.871618,0.073663,0.956765,0.34489000000000003,-0.215984,-0.07898,0.48733,-0.25957600000000003
226,1.669423,-1.069098,-2.5439580000000004,0.478578,0.876767,0.047354,1.882879,-0.310577,-0.405228,-0.130037,0.484119,-0.154273
227,1.5663,-1.080171,-2.649198,0.471172,0.8820389999999999,-0.002119,2.8888700000000003,-0.525176,-0.358402,0.0145,-0.239033,-0.296038
228,1.435138,-1.075279,-2.79115,0.471118,0.8797229999999999,-0.06430599999999999,3.595414,-0.098641,0.253805,0.11780999999999997,-0.181389,-0.22024
229,1.320856,-1.042907,-2.923867,0.4880600000000001,0.863872,-0.124591,3.3334010000000003,0.029468,1.475993,0.238686,-0.125621,0.005908
230,1.237295,-0.987404,-3.007092,0.5205069999999999,0.834599,-0.180326,2.58168,-1.288563,2.197754,0.321137,0.434566,-0.042697000000000006
231,1.143832,-0.928982,-3.041449,0.5449069999999999,0.8010109999999999,-0.247907,1.572389,-4.437908,2.370996,0.305236,0.428665,-0.12839
232,1.035726,-0.875393,-3.047945,0.551147,0.767796,-0.326691,1.519111,-5.252187,2.253095,0.091493,0.286983,0.332642
233,0.928942,-0.821887,-3.050636,0.5453439999999999,0.732432,-0.407607,1.528873,-5.1354760000000015,2.095985,-0.1981,0.443365,0.20439
234,0.829567,-0.775329,-3.059492,0.5268149999999999,0.699951,-0.482218,1.960943,-4.321846,1.249792,-0.241262,0.583313,0.339106
235,0.7466430000000001,-0.727982,-3.087658,0.50702,0.665365,-0.547924,2.575739,-2.49343,0.883207,-0.320969,0.296076,0.05743
236,0.701146,-0.6819569999999999,-3.097392,0.5008130000000001,0.630313,-0.593205,1.369513,-1.892469,1.624971,-0.199681,0.333127,-0.195049
237,0.6690020000000001,-0.6429590000000001,-3.090093,0.496365,0.5995659999999999,-0.627808,1.463957,-1.7630740000000005,1.153311,-0.045086,-0.006579000000000001,0.132492
238,0.628779,-0.6169359999999999,-3.099328,0.479734,0.578539,-0.659658,0.980649,-1.756534,0.20455,-0.119245,-0.166948,0.058034
239,0.595775,-0.609487,-3.100825,0.460111,0.572447,-0.6786770000000001,-0.014238,-1.45352,0.149143,-0.204938,-0.222822,0.208646
240,0.579044,-0.614846,-3.094249,0.447007,0.576833,-0.683702,-0.548284,-0.7629859999999999,0.020614,-0.305787,-0.3638050000000001,0.29535100000000003
241,0.579018,-0.629089,-3.084679,0.442448,0.588408,-0.676768,-0.951717,0.018745,-0.116734,-0.344181,-0.4420310000000001,0.288615
242,0.594521,-0.650362,-3.073601,0.445773,0.605474,-0.659308,-1.182592,0.672308,-0.320009,-0.308765,-0.442938,0.237631
243,0.617402,-0.6749029999999999,-3.0653490000000003,0.452001,0.624821,-0.636626,-1.192204,1.003148,-0.462574,-0.242681,-0.424962,0.083709
244,0.650745,-0.700344,-3.053467,0.463191,0.6444810000000001,-0.6083569999999999,-1.42537,1.481731,-0.329152,-0.14232999999999998,-0.442226,0.274251
245,0.7035020000000001,-0.7327859999999999,-3.0285040000000003,0.480844,0.6689430000000001,-0.566837,-2.154014,2.018826,-0.279382,-0.305261,-0.350706,0.553913
246,0.771597,-0.7710020000000001,-2.999239,0.500099,0.696855,-0.514096,-1.829019,2.515571,-0.642012,-0.394752,-0.405656,0.481504
247,0.829116,-0.797959,-2.992685,0.514785,0.715932,-0.471633,-0.789565,2.815462,-0.880827,-0.333892,-0.143835,0.41426
248,0.8585290000000001,-0.810138,-3.017952,0.5217930000000001,0.724383,-0.450557,0.938761,2.673622,-1.007442,-0.349186,0.100553,-0.026997000000000004
249,0.933847,-0.820627,-3.03959,0.548079,0.7315729999999999,-0.405475,-0.464122,5.185683999999998,-0.892273,0.426164,0.73707,0.8810610000000001
250,1.009998,-0.841881,-3.0420540000000003,0.564041,0.745898,-0.354252,-0.039523,2.777862,-0.919337,-0.005569,0.497602,-0.33192
251,1.029069,-0.853449,-3.0550200000000003,0.563263,0.753552,-0.33896,-0.210154,1.032027,-0.543345,0.19397,0.148013,-0.085707
252,1.070882,-0.86282,-3.040718,0.570717,0.75968,-0.31172,-0.803253,2.068428,-0.001887,0.165581,-0.17777,0.510084
253,1.129899,-0.868442,-3.027873,0.584237,0.763324,-0.275688,-0.124756,2.574987,-0.195418,0.004142,-0.186938,0.43055
254,1.163638,-0.8745620000000001,-3.050333,0.588904,0.767263,-0.253969,0.773247,2.632797,-0.777809,-0.047827,-0.039663,0.059908
255,1.20018,-0.8865940000000001,-3.079655,0.589141,0.774924,-0.228924,0.464949,3.196963,-0.935578,-0.046386,0.096063,-0.094867
256,1.251184,-0.903594,-3.095784,0.587453,0.785556,-0.194423,0.081691,3.031498,-1.049138,0.10728,0.22782600000000006,-0.105092
257,1.290276,-0.929184,-3.106498,0.575094,0.801132,-0.165695,-0.159421,1.889966,-1.483057,0.242716,0.075806,0.001755
258,1.307809,-0.963472,-3.105867,0.5510520000000001,0.8211780000000001,-0.148355,-0.700865,0.14137,-1.692902,0.325383,0.08641499999999999,0.059549
259,1.306524,-0.998369,-3.083943,0.5228689999999999,0.8405879999999999,-0.141489,-1.2366629999999998,-1.475185,-1.362356,0.657215,0.33670300000000003,0.084284
260,1.309794,-1.0268540000000002,-3.037958,0.499986,0.855675,-0.133544,-1.7130029999999998,-1.798323,-0.86,0.816237,0.261696,-0.044038
261,1.343095,-1.045291,-2.96572,0.488702,0.8650700000000001,-0.113242,-2.177634,-1.244404,-0.185635,0.728431,0.085873,-0.135095
262,1.4053870000000002,-1.051642,-2.877986,0.489374,0.868239,-0.081694,-2.187117,-0.286397,0.273475,0.491217,-0.010741,-0.000139
263,1.484616,-1.048492,-2.804389,0.4970270000000001,0.8666719999999999,-0.04294,-1.584826,1.150157,0.405084,0.054929,0.100186,-0.189878
264,1.556215,-1.04755,-2.740423,0.499641,0.866202,-0.007286,-1.617542,0.50667,-0.083565,-0.21093,0.142007,-0.8071520000000001
265,1.610366,-1.054825,-2.682931,0.4929939999999999,0.869814,0.019518,-1.169033,0.15853499999999998,-0.524367,-0.103315,-0.038027,-0.761187
266,1.632651,-1.06513,-2.661883,0.483465,0.8748520000000001,0.029943,-0.08065599999999999,0.221734,-0.489072,0.069285,-0.209797,-0.484288
267,1.619534,-1.071846,-2.679819,0.477936,0.878085,0.023312,0.732533,0.047442000000000005,-0.232136,-0.024872,-0.323673,-0.317761
268,1.573657,-1.075236,-2.727837,0.475523,0.8797020000000001,0.00136,1.400963,-0.369969,-0.057085,-0.258482,-0.227404,-0.134035
269,1.491633,-1.0719459999999998,-2.80702,0.476918,0.8781329999999999,-0.037833,2.183403,-0.7391,0.199886,-0.344594,-0.146001,-0.13662
270,1.384815,-1.056602,-2.911411,0.4833520000000001,0.8706889999999999,-0.090945,2.868789,-0.774818,0.545482,-0.291137,-0.145607,-0.083356
271,1.262226,-1.026928,-3.034329,0.4930100000000001,0.855713,-0.157148,3.645448000000001,-0.829427,0.74112,-0.22827,-0.14210599999999998,0.015424
272,1.152058,-0.983183,3.13535,0.50648,0.832266,-0.225414,3.431736,-0.586014,1.059781,0.314581,0.147928,0.222866
273,1.08598,-0.933681,3.070975,0.526325,0.803815,-0.277241,2.248303,-1.018827,1.629978,0.458416,0.438159,0.262486
274,1.027713,-0.8830459999999999,3.053599,0.543465,0.772676,-0.32805100000000004,1.416693,-3.0885,2.044496,0.488914,0.5823659999999999,0.287188
275,0.949158,-0.839907,3.06336,0.542654,0.744581,-0.388749,0.6984229999999999,-4.681327,1.928288,-0.055517,0.614931,0.443192
276,0.8780709999999999,-0.802914,3.0802080000000003,0.534511,0.719384,-0.443605,0.927496,-3.834038,1.896758,-0.211116,0.109855,0.158251
277,0.811813,-0.756375,3.08213,0.5277029999999999,0.68629,-0.500536,1.928182,-3.053915,1.743585,0.04969,0.202184,-0.274412
278,0.7422810000000001,-0.700987,3.064484,0.5165810000000001,0.644972,-0.5631649999999999,2.534231,-3.073164,1.237233,-0.078348,0.521227,-0.313177
279,0.656087,-0.657592,3.045741,0.482811,0.611213,-0.627146,1.845959,-3.923826,0.645993,-0.114632,0.422692,0.002222
280,0.597833,-0.630229,3.045129,0.454725,0.58933,-0.667769,0.840007,-2.154305,0.96037,-0.071699,-0.219991,0.138121
281,0.567268,-0.6096590000000001,3.045298,0.440526,0.572588,-0.691433,0.649296,-1.328602,0.298887,0.051616,-0.21190100000000006,-0.089527
282,0.547802,-0.607477,3.046613,0.427634,0.5707979999999999,-0.700941,-0.236093,-0.857836,0.022907,0.008065000000000001,-0.014768,0.0007610000000000001
283,0.535191,-0.618764,3.053963,0.415448,0.580029,-0.700692,-0.908307,-0.911801,-0.018038,-0.097089,0.007175,0.201409
284,0.5241180000000001,-0.638824,3.066905,0.401759,0.596252,-0.6950350000000001,-1.264572,-0.902008,-0.026949,-0.220821,-0.222579,0.4341100000000001
285,0.5246029999999999,-0.664566,3.0866990000000003,0.394277,0.616718,-0.681326,-1.6806150000000002,-0.301275,0.087948,-0.344274,-0.359821,0.368353
286,0.546138,-0.695797,3.112174,0.398655,0.640997,-0.655894,-1.8862330000000005,0.648861,0.022269,-0.420063,-0.432638,0.243693
287,0.5882229999999999,-0.727232,3.137455,0.414508,0.664805,-0.6214649999999999,-1.802377,1.671512,-0.046822,-0.328906,-0.5552010000000001,0.200215
288,0.652816,-0.75839,-3.1179650000000003,0.440957,0.687754,-0.576673,-1.962172,2.60871,-0.113232,-0.267007,-0.575571,0.561811
289,0.736258,-0.793762,-3.086624,0.4708479999999999,0.712996,-0.519556,-2.018549,3.331163,-0.379471,-0.3713,-0.517379,0.603113
290,0.814815,-0.819392,-3.07002,0.496707,0.730731,-0.468311,-0.836058,3.284954,-0.50468,-0.412524,-0.32216100000000003,0.401355
291,0.864093,-0.830624,-3.081275,0.512897,0.7383529999999999,-0.437918,0.597264,2.377827,-0.80329,-0.315067,0.32726,-0.260233
292,0.907138,-0.831282,-3.113139,0.530883,0.738796,-0.415143,0.228007,4.351604,-0.704781,0.47728,0.929219,0.527188
293,1.006311,-0.853188,-3.102113,0.555569,0.7533810000000001,-0.351795,-1.237156,4.183567,-0.569521,0.092639,0.293403,0.404545
294,1.066451,-0.863023,-3.096806,0.569195,0.759811,-0.314172,0.17010699999999998,1.919975,-0.221369,0.10088,0.032822000000000004,-0.263465
295,1.086482,-0.862079,-3.1048310000000003,0.576008,0.7591979999999999,-0.30304200000000003,0.108355,1.210927,-0.008316,0.200497,-0.123013,0.043078
296,1.120349,-0.8622799999999999,-3.102749,0.585801,0.759328,-0.283297,-0.06540800000000001,1.969947,0.006589,0.113128,-0.175619,0.43558
297,1.162559,-0.8640110000000001,-3.111682,0.5960270000000001,0.7604529999999999,-0.257804,0.47077,2.644043,-0.401795,0.00346,-0.027284,0.27860100000000004
298,1.197412,-0.870617,-3.139764,0.599958,0.764726,-0.235041,0.750934,2.962785,-0.700416,-0.034986,0.066588,0.060053
299,1.245046,-0.880265,3.123386,0.60345,0.770908,-0.203835,0.216343,3.168174,-0.717232,0.089711,0.186932,-0.082236
300,1.29582,-0.898568,3.1144540000000003,0.599337,0.782436,-0.169086,-0.070229,2.645519,-1.09992,0.093825,0.175404,-0.116985
301,1.332127,-0.92473,3.113146,0.5849840000000001,0.798458,-0.14232999999999998,-0.480521,1.284509,-1.3798469999999998,0.378593,0.163273,0.06263400000000001
302,1.348709,-0.956062,3.1338470000000003,0.5625760000000001,0.8169270000000001,-0.12703699999999998,-1.217694,-0.792536,-1.334265,0.745392,0.4857010000000001,0.162132
303,1.351709,-0.984366,-3.107119,0.5401630000000001,0.8329209999999999,-0.120273,-1.553462,-1.76763,-0.951869,0.811796,0.412837,0.017215
304,1.371408,-1.004809,-3.049403,0.525625,0.84406,-0.106215,-1.929599,-1.207813,-0.496947,0.630137,0.154292,-0.15846400000000002
305,1.419555,-1.0178,-2.977114,0.519243,0.8509549999999999,-0.079135,-1.933081,-0.274695,-0.211883,0.311781,0.056714,0.009891
306,1.481706,-1.024228,-2.914246,0.5176970000000001,0.8543129999999999,-0.046244,-1.508044,0.897233,-0.079025,0.090961,0.132473,0.033854
307,1.545275,-1.030161,-2.860184,0.514513,0.857382,-0.013134,-1.424896,0.617839,-0.344073,-0.083483,0.212915,-0.474247
308,1.599774,-1.04184,-2.803575,0.504421,0.863334,0.014621,-1.375854,0.219762,-0.736326,0.014943,0.07320499999999999,-0.603366
309,1.643466,-1.05667,-2.75978,0.4904770000000001,0.8707219999999999,0.035706,-0.8215,0.327689,-0.767844,0.140428,-0.240992,-0.5394899999999999
310,1.66872,-1.0682459999999998,-2.738198,0.479354,0.8763569999999999,0.047091,-0.28068000000000004,0.315228,-0.518359,0.150284,-0.452971,-0.484728
311,1.674836,-1.075291,-2.738038,0.472905,0.8797290000000001,0.049379,0.253677,0.270904,-0.287038,-0.002522,-0.471266,-0.358736
312,1.6499529999999998,-1.0811,-2.767962,0.4688850000000001,0.882476,0.037193,1.031444,-0.099743,-0.17965,-0.198179,-0.296676,-0.128395
313,1.584561,-1.083786,-2.830699,0.467942,0.8837360000000001,0.006442,1.7242650000000002,-0.7528020000000001,0.030057,-0.302186,-0.195839,-0.079577
314,1.483844,-1.079244,-2.920634,0.470212,0.881601,-0.04099,2.328402,-1.216955,0.223935,-0.300046,-0.067591,-0.183635
315,1.365139,-1.063823,-3.030615,0.4753020000000001,0.874218,-0.099151,3.007123,-0.961328,0.44413,-0.233328,-0.104458,-0.026215
316,1.243692,-1.034721,3.130948,0.483683,0.85972,-0.16410999999999998,3.367703,-0.687805,0.72724,-0.082774,-0.066675,0.088091
317,1.156114,-0.990878,3.034035,0.501513,0.836507,-0.220771,3.106948,-0.397528,1.354227,0.126584,0.209803,0.135733
318,1.095935,-0.941976,2.989159,0.523112,0.808722,-0.26893,1.746041,-1.6456400000000002,1.902864,0.297521,0.5869840000000001,0.157846
319,1.040193,-0.887913,2.981161,0.5442670000000001,0.775756,-0.319337,1.372943,-3.0034,2.37522,0.413207,0.614472,0.186753
320,0.967829,-0.8348760000000001,2.988811,0.552896,0.741213,-0.38067,1.14947,-4.394556,2.279302,0.348319,0.550214,0.311166
321,0.884566,-0.7870229999999999,3.000573,0.546157,0.708255,-0.447312,1.074631,-4.549342,2.158268,0.190538,0.440137,0.153245
322,0.813227,-0.739891,3.011389,0.536557,0.674207,-0.507495,1.448647,-3.542692,1.843397,-0.00073,0.367831,-0.227613
323,0.740687,-0.6953590000000001,3.00706,0.518124,0.6406609999999999,-0.566658,1.775845,-3.534907,1.212217,-0.16428800000000002,0.452128,-0.309471
324,0.663311,-0.661057,2.996317,0.486022,0.613951,-0.62197,1.362556,-3.295542,0.58625,-0.26165700000000003,0.317262,-0.017922999999999998
325,0.614629,-0.642534,3.001059,0.461659,0.599226,-0.654064,0.40798,-2.291769,0.8101,-0.039357,-0.259031,0.225215
326,0.5804819999999999,-0.626841,3.002463,0.444163,0.586589,-0.6772239999999999,0.6300100000000001,-1.43792,0.211285,0.079717,-0.30459200000000003,0.105447
327,0.558869,-0.623575,3.002954,0.430437,0.5839409999999999,-0.688286,-0.228446,-0.97115,0.111755,-0.036302,-0.048952,0.035118
328,0.547346,-0.6344390000000001,3.013403,0.419151,0.592726,-0.687742,-0.901921,-0.845023,0.056682,-0.134071,-0.149596,0.203321
329,0.543806,-0.653667,3.030132,0.41074,0.608102,-0.679342,-1.348738,-0.511299,0.104408,-0.273701,-0.24865,0.378484
330,0.554268,-0.678028,3.051434,0.409905,0.627259,-0.662212,-1.494112,0.096586,0.060953,-0.413216,-0.418457,0.41714
331,0.5759529999999999,-0.703046,3.071623,0.4154890000000001,0.646544,-0.639804,-1.428076,0.666752,-0.05682,-0.434623,-0.516951,0.195041
332,0.610438,-0.725784,3.089139,0.428761,0.663722,-0.612892,-1.2951700000000002,1.494092,-0.077248,-0.27815700000000004,-0.6209979999999999,0.201195
333,0.6667109999999999,-0.752683,3.111208,0.451347,0.6836,-0.573565,-1.759901,2.402814,-0.217323,-0.315635,-0.5740109999999999,0.59386
334,0.74093,-0.783817,3.134987,0.478033,0.7059880000000001,-0.5225569999999999,-1.505679,3.002402,-0.396845,-0.524756,-0.504297,0.32874000000000003
335,0.8000510000000001,-0.800623,3.141409,0.499491,0.7177899999999999,-0.485063,-0.375994,2.609066,-0.5145,-0.380289,-0.022386,0.051714
336,0.8291649999999999,-0.805815,3.12092,0.510644,0.721395,-0.467794,0.712199,2.256296,-0.617542,0.298834,0.609583,0.143346
337,0.90096,-0.818521,3.115686,0.5356569999999999,0.730136,-0.424233,-1.072957,4.524302,-0.676715,0.312595,0.670057,0.76072
338,0.992679,-0.8405870000000001,3.131717,0.558629,0.745035,-0.364495,-0.549308,3.252944,-0.477012,-0.067922,0.200079,-0.003746
339,1.0271370000000002,-0.842776,3.124722,0.569458,0.7464930000000001,-0.344188,0.169958,1.549741,-0.078836,0.157212,0.006833,0.06379299999999999
340,1.065426,-0.844115,3.127928,0.581341,0.747384,-0.321653,-0.23557,2.0739080000000003,-0.006497,0.128971,-0.062066,0.483641
341,1.108112,-0.848074,3.128887,0.591885,0.750008,-0.29523,0.080224,1.972963,-0.343856,0.045292,-0.019493,0.391162
342,1.122587,-0.857253,3.104777,0.589867,0.756047,-0.283636,0.6993060000000001,1.421469,-0.959462,-0.004463,0.012034,0.04917
343,1.128168,-0.872179,3.074951,0.581177,0.765733,-0.275475,0.368796,1.5426030000000002,-1.128568,0.010894,0.06253,-0.075172
344,1.152658,-0.89174,3.05263,0.5739489999999999,0.778166,-0.255029,0.219899,2.458748,-1.267515,0.127711,0.163973,-0.034460000000000005
345,1.191886,-0.915654,3.028041,0.566055,0.7929609999999999,-0.225375,0.156851,3.003905,-1.412864,0.206406,0.106743,0.022326
346,1.233745,-0.94274,3.0199990000000003,0.554512,0.809171,-0.194314,-0.4864350000000001,1.897978,-1.345437,0.210365,0.160342,0.028802
347,1.254761,-0.972745,3.033546,0.535149,0.826435,-0.174991,-1.071001,-0.356638,-1.248355,0.716576,0.303052,0.143497
348,1.256256,-1.000427,3.071405,0.513452,0.8417020000000001,-0.167047,-1.481086,-1.887849,-0.79099,0.814017,0.287067,-0.036551
349,1.274944,-1.019346,3.127758,0.501161,0.851766,-0.152753,-1.921549,-1.109629,-0.285522,0.7464890000000001,0.17443399999999998,-0.16630899999999998
350,1.325251,-1.032702,-3.0839950000000003,0.497128,0.8586870000000001,-0.124581,-1.865052,-0.196671,-0.072653,0.2495,0.147188,0.133416
351,1.389041,-1.038406,-3.017758,0.499233,0.8615959999999999,-0.091751,-1.630566,0.693226,0.158581,0.149601,0.172889,0.109619
352,1.457414,-1.04111,-2.95925,0.502019,0.862966,-0.057165,-1.453225,0.787142,-0.037922,0.027156,0.174968,0.027624
353,1.517627,-1.050496,-2.899423,0.496438,0.86767,-0.02642,-1.50566,0.302306,-0.4905930000000001,-0.235193,0.162588,-0.646904
354,1.568301,-1.062551,-2.853193,0.486644,0.8736,-0.001214,-0.930789,0.637328,-0.5874199999999999,-0.108424,0.029629000000000006,-0.6205350000000001
355,1.604877,-1.073339,-2.825263,0.476915,0.878799,0.01626,-0.5260859999999999,0.55571,-0.507576,0.152541,-0.340698,-0.574503
356,1.624859,-1.080862,-2.814646,0.4698810000000001,0.8823639999999999,0.025428,-0.038484,0.532936,-0.296906,0.149825,-0.499582,-0.433905
357,1.623334,-1.083932,-2.825559,0.467211,0.883804,0.024569,0.451158,0.26721100000000003,-0.07095499999999999,-0.066027,-0.5038600000000001,-0.297823
358,1.586975,-1.084518,-2.862727,0.467278,0.884078,0.007561,1.170718,-0.465458,0.043968,-0.22567,-0.284637,-0.14045
359,1.504472,-1.078876,-2.939422,0.4712810000000001,0.8814280000000001,-0.031303,2.172558,-0.8250790000000001,0.396463,-0.30869800000000003,-0.157749,-0.099678
360,1.396676,-1.0588229999999998,-3.045313,0.482491,0.8717790000000001,-0.084871,2.943768,-0.642107,0.856678,-0.252709,-0.093154,-0.128218
361,1.277278,-1.023639,3.113972,0.498011,0.854007,-0.150523,3.691068,-0.601727,1.032761,-0.181498,-0.042468,0.085551
362,1.179137,-0.98209,3.007745,0.5132369999999999,0.8316600000000001,-0.211965,3.19676,-0.389284,1.081379,-0.018013,0.231618,0.21581
363,1.11076,-0.936755,2.946814,0.530817,0.8056399999999999,-0.263017,2.084952,-1.506348,1.409398,0.092001,0.677804,0.23973200000000006
364,1.040728,-0.8941020000000001,2.924037,0.540285,0.779647,-0.316612,1.465373,-3.326827,1.6605720000000002,0.100981,0.6860970000000001,0.119728
365,0.948189,-0.8496520000000001,2.917886,0.536357,0.75105,-0.385025,1.407567,-4.618475,1.840205,0.138295,0.680972,0.186905
366,0.8707030000000001,-0.799141,2.914183,0.5333,0.716757,-0.449277,1.842217,-3.244028,1.935483,0.367548,0.377283,0.136381
367,0.807763,-0.742432,2.9081900000000003,0.532536,0.676082,-0.509233,2.149576,-2.9926,1.92983,0.232372,0.29280500000000004,-0.4255350000000001
368,0.7302,-0.687682,2.895407,0.515418,0.634748,-0.575707,2.297372,-3.756423,1.274885,0.091088,0.487872,-0.280829
369,0.6479010000000001,-0.646567,2.88328,0.481699,0.602449,-0.636412,1.499041,-3.273717,0.868107,-0.374338,0.527647,0.076292
370,0.60087,-0.618351,2.887693,0.460676,0.579692,-0.672112,1.088653,-2.278243,0.83085,-0.219862,-0.474208,0.235879
371,0.5544479999999999,-0.594622,2.877023,0.4361100000000001,0.560196,-0.7042649999999999,1.169067,-1.751394,0.078708,0.025087,-0.200836,-0.032109
372,0.517788,-0.582263,2.86724,0.4134,0.5499149999999999,-0.7257359999999999,0.455105,-1.524389,-0.126327,-0.030512,-0.02689,-0.093493
373,0.4859979999999999,-0.585303,2.861244,0.389341,0.552452,-0.737028,-0.293217,-1.372793,-0.358212,-0.162718,-0.063164,0.077986
374,0.462391,-0.601195,2.859898,0.367872,0.565628,-0.738062,-0.8916120000000001,-0.935806,-0.428113,-0.264006,-0.135376,0.286768
375,0.454915,-0.62611,2.86356,0.356041,0.585997,-0.727903,-1.32356,-0.171645,-0.4096770000000001,-0.280006,-0.2713,0.402906
376,0.465979,-0.658365,2.872869,0.355391,0.611825,-0.706659,-1.781463,0.521208,-0.384921,-0.2648,-0.23478,0.375818
377,0.48989,-0.694343,2.885192,0.361589,0.639881,-0.67809,-1.7955150000000002,0.92724,-0.413313,-0.241411,-0.225818,0.206395
378,0.519271,-0.727888,2.897795,0.370489,0.665295,-0.6481680000000001,-1.589896,1.141542,-0.370491,-0.133047,-0.334301,-0.037333
379,0.556841,-0.7544569999999999,2.912562,0.385093,0.684893,-0.618567,-1.431161,1.594784,-0.100771,0.007026999999999999,-0.47362,0.161627
380,0.614154,-0.782096,2.935832,0.408826,0.7047680000000001,-0.579796,-1.699072,2.327372,-0.054443,-0.177976,-0.527003,0.392036
381,0.681589,-0.8057880000000001,2.958039,0.436321,0.721376,-0.53781,-1.059094,2.683412,-0.13588699999999998,-0.304516,-0.262697,-0.042192
382,0.739689,-0.816339,2.9629950000000003,0.461658,0.728643,-0.505916,-0.22305,2.634423,-0.33081,-0.12363,0.269754,0.059184
383,0.777133,-0.81913,2.951951,0.478846,0.7305520000000001,-0.4868270000000001,0.221748,2.427068,-0.277231,0.225942,0.5614560000000001,0.40121
384,0.8386170000000001,-0.825789,2.952957,0.504225,0.735083,-0.453222,-0.566844,3.158245,-0.225992,-0.089827,0.306848,0.475622
385,0.899409,-0.839458,2.9602,0.522912,0.7442810000000001,-0.415462,-0.353046,2.370939,-0.394405,-0.345575,-0.049854,0.060298
386,0.923483,-0.84554,2.949375,0.529141,0.74833,-0.400016,0.179133,1.325323,-0.443827,-0.110501,-0.212914,0.113334
387,0.959308,-0.852915,2.949507,0.5385949999999999,0.753201,-0.377629,-0.50484,2.281127,-0.180638,-0.013586,-0.283764,0.38857
388,1.019578,-0.859029,2.962257,0.55643,0.757208,-0.342084,-0.353688,2.597424,-0.022959,-0.01134,-0.36463,0.427121
389,1.067621,-0.862194,2.952478,0.570114,0.7592720000000001,-0.313809,0.540641,2.894502,-0.497792,0.14189200000000002,0.175374,-0.043704
390,1.107836,-0.868707,2.920085,0.577832,0.763495,-0.28841999999999995,0.756791,3.442533,-0.804633,0.149845,0.224588,-0.178438
391,1.163631,-0.875426,2.896649,0.5882930000000001,0.7678159999999999,-0.253711,0.445747,3.79524,-0.5604979999999999,0.158624,0.32108200000000003,-0.285458
392,1.222906,-0.8839049999999999,2.874573,0.596148,0.773221,-0.216187,0.593774,3.826207,-0.706918,0.228208,0.096988,0.02768
393,1.277816,-0.8942559999999999,2.849652,0.59942,0.7797430000000001,-0.180822,0.46573,3.53709,-0.755512,0.243751,0.095653,0.054586
394,1.3227870000000002,-0.909114,2.838231,0.595645,0.78896,-0.150831,-0.023064,1.976442,-0.859476,0.214276,0.123623,0.053831
395,1.334706,-0.927953,2.841109,0.5828439999999999,0.8003939999999999,-0.140219,-0.522027,-0.382225,-0.922964,0.485942,0.142126,0.17339200000000002
396,1.324541,-0.949503,2.865077,0.564527,0.813127,-0.141898,-1.174813,-1.862344,-0.777144,0.5618770000000001,0.156615,0.064536
397,1.32481,-0.964561,2.904084,0.5526260000000001,0.821799,-0.138749,-1.289718,-1.279169,-0.262743,0.6350720000000001,0.186731,-0.12912
398,1.350888,-0.972937,2.951129,0.549319,0.826542,-0.122785,-1.48699,-0.265461,0.016590999999999998,0.426755,0.166454,0.049177
399,1.401805,-0.976578,3.008873,0.551886,0.828586,-0.094162,-1.681064,0.361076,0.145824,0.320871,0.17916500000000002,0.014908
400,1.463669,-0.9799,3.068018,0.553912,0.830441,-0.059567,-1.6494830000000005,0.838772,0.005495,0.21803000000000006,0.166247,-0.085239
401,1.544403,-0.984848,3.134637,0.552797,0.8331879999999999,-0.014593,-2.043899,1.390773,-0.231908,0.040816000000000005,0.28538800000000003,-0.025705
402,1.638624,-0.994731,-3.068567,0.5434760000000001,0.8386120000000001,0.036919,-2.191328,1.413171,-0.643163,0.024502,0.246928,-0.015847
403,1.734017,-1.003147,-2.990679,0.530506,0.843167,0.087367,-1.942356,1.4667629999999998,-0.674608,0.044308,0.213016,-0.055812
404,1.817254,-1.009969,-2.92401,0.5158149999999999,0.846815,0.12976400000000002,-1.482047,1.289576,-0.7192350000000001,0.063729,0.097963,-0.586216
405,1.882428,-1.01863,-2.8736900000000003,0.499269,0.85139,0.160828,-1.014816,0.94636,-0.808467,0.0419,0.021733,-0.721299
406,1.928859,-1.02865,-2.831637,0.483251,0.8566030000000001,0.180829,-0.7314039999999999,0.345788,-0.848447,0.01095,-0.194265,-0.952085
407,1.955344,-1.041362,-2.807877,0.468161,0.863093,0.189463,-0.052503,0.292932,-0.74002,0.095743,-0.419886,-0.518854
408,1.948394,-1.054025,-2.819436,0.459269,0.869419,0.18216,0.7774949999999999,-0.008863,-0.314024,0.030660000000000007,-0.396427,-0.086594
409,1.907778,-1.062435,-2.864705,0.459371,0.8735430000000001,0.160938,1.431214,-0.016474000000000003,0.222527,-0.217336,-0.171822,-0.079777
410,1.846557,-1.061161,-2.932347,0.469427,0.872923,0.13283399999999998,1.512409,-0.233835,0.695526,-0.260747,-0.182478,-0.420645
411,1.779308,-1.054858,-2.998171,0.482665,0.8698299999999999,0.102126,1.675287,-0.5730689999999999,0.6735979999999999,-0.229858,-0.15654300000000002,-0.373824
412,1.680649,-1.04872,-3.102768,0.495675,0.8667860000000001,0.054671,3.016804,-0.203972,0.714542,-0.027322000000000003,0.03127,0.072312
413,1.564995,-1.039362,3.045344,0.506761,0.862081,-0.00294,3.37404,0.138181,0.621527,-0.023134,0.308603,0.17013
414,1.468058,-1.021729,2.934484,0.5191399999999999,0.8530110000000001,-0.053524,2.53051,-0.311273,0.796741,-0.148367,0.425721,0.213024
415,1.393101,-1.000223,2.861159,0.53161,0.841591,-0.095472,1.906707,-0.74573,0.760893,-0.291208,0.38076,0.317869
416,1.329787,-0.981618,2.804581,0.539617,0.831398,-0.132631,1.549367,-0.822018,0.431609,-0.461233,0.255959,0.204073
417,1.27627,-0.97324,2.763034,0.538397,0.8267129999999999,-0.163322,1.080973,-1.082594,-0.064847,-0.6202,0.129525,0.207741
418,1.221744,-0.971096,2.725529,0.53036,0.8255049999999999,-0.193027,1.061307,-1.194453,-0.31266900000000003,-0.425731,0.036571,0.105717
419,1.151385,-0.963848,2.673572,0.52093,0.821392,-0.232265,1.808636,-1.571864,-0.08584299999999999,0.083486,0.049366,-0.527928
420,1.066187,-0.943719,2.614228,0.513646,0.809746,-0.283688,2.00253,-1.983068,0.280302,0.158351,0.250572,-0.215183
421,0.990638,-0.916716,2.571607,0.508876,0.793608,-0.333514,1.6693790000000002,-2.024493,0.538674,0.096288,0.20865,0.246204
422,0.933298,-0.891366,2.5426740000000003,0.504934,0.777931,-0.373986,1.420073,-1.538658,0.471148,-0.11868900000000003,0.159615,0.462059
423,0.8842760000000001,-0.8665459999999999,2.509479,0.500784,0.762097,-0.410394,1.682657,-1.007157,0.261862,-0.297613,-0.124311,0.465814
424,0.840335,-0.8436959999999999,2.477098,0.495117,0.747105,-0.443501,1.39826,-1.021672,0.14238900000000002,-0.3293,-0.284275,0.34766
425,0.804467,-0.825859,2.4528060000000003,0.488419,0.7351300000000001,-0.470139,1.134357,-0.71044,0.062166999999999986,-0.22522,-0.337822,0.301193
426,0.78113,-0.810477,2.43163,0.48522,0.724616,-0.48938,0.987009,-0.27417800000000003,0.048828,-0.126959,-0.263862,0.158127
427,0.764944,-0.7979649999999999,2.417885,0.4834770000000001,0.7159369999999999,-0.503671,0.6319100000000001,-0.393635,0.126618,-0.048037,-0.1504,0.134668
428,0.750879,-0.790585,2.413089,0.479937,0.710765,-0.51427,0.250254,-0.5733729999999999,0.117773,-0.046847,-0.108394,0.252612
429,0.741628,-0.789169,2.411997,0.475839,0.7097680000000001,-0.519429,-0.017568,-0.270303,-0.048992,-0.16378099999999998,-0.186407,0.347966
430,0.7436560000000001,-0.793384,2.412217,0.474861,0.712731,-0.516257,-0.242626,0.338156,-0.166712,-0.32610300000000003,-0.266015,0.357168
431,0.760359,-0.801555,2.414993,0.479388,0.718439,-0.504017,-0.438922,0.969818,-0.251146,-0.380542,-0.25535,0.324573
432,0.790116,-0.8152,2.421078,0.487162,0.727863,-0.482586,-0.767104,1.4241629999999998,-0.367252,-0.348231,-0.222354,0.246884
433,0.8335370000000001,-0.8337379999999999,2.435235,0.497575,0.740449,-0.451836,-1.108302,1.779799,-0.29638400000000004,-0.12086600000000003,-0.174851,0.021034
434,0.891508,-0.851241,2.460772,0.5127550000000001,0.752099,-0.414041,-1.22902,2.047448,0.007942,0.01819,-0.15445799999999998,-0.131964
435,0.956299,-0.861682,2.488751,0.532041,0.758939,-0.375426,-0.879027,2.242566,0.193871,0.177249,-0.113217,-0.348894
436,1.016185,-0.864867,2.5075,0.5514979999999999,0.761009,-0.341635,-0.486278,2.257237,0.180572,0.25531,-0.0061270000000000005,-0.668863
437,1.064118,-0.8689319999999999,2.524468,0.564525,0.76364,-0.313315,-0.6765359999999999,1.342265,0.054365,0.124165,0.094179,-0.8386469999999999
438,1.095269,-0.87464,2.546847,0.570125,0.767313,-0.29358,-0.772725,0.428299,0.127504,0.074635,0.08165599999999999,-0.745742
439,1.117177,-0.874976,2.568145,0.576188,0.767528,-0.280907,-0.485762,0.232269,0.4160430000000001,0.134017,-0.038387,-0.432594
440,1.1341629999999998,-0.8653649999999999,2.5846,0.587533,0.761332,-0.274187,-0.186522,0.245697,0.79413,0.246711,-0.177775,-0.288039
441,1.155374,-0.8505290000000001,2.602771,0.603485,0.751629,-0.266193,-0.316498,0.469125,0.97667,0.182892,-0.183102,-0.22077600000000006
442,1.182424,-0.836382,2.625325,0.6202439999999999,0.742224,-0.253775,-0.419168,0.51159,0.8359610000000001,0.075282,-0.212545,-0.202219
443,1.203626,-0.832248,2.631917,0.628343,0.7394470000000001,-0.241668,0.08753,1.11059,-0.213466,0.642119,1.7742099999999998,0.124541
444,1.220675,-0.855034,2.607443,0.616382,0.7545930000000001,-0.225082,0.490125,1.956291,-1.594016,0.5831109999999999,2.060059,0.313843
445,1.228789,-0.854187,2.592641,0.61879,0.754037,-0.220287,0.539752,0.217465,0.8312860000000001,-0.798188,0.829886,0.442638
446,1.235259,-0.829809,2.593098,0.637373,0.7378020000000001,-0.222267,0.031921,0.426131,1.036843,-0.973753,0.068686,0.218101
447,1.266476,-0.824916,2.61421,0.647437,0.734491,-0.203345,-0.7227819999999999,1.045125,0.076856,-1.240485,-0.216973,0.096686
448,1.310538,-0.837584,2.619845,0.646721,0.743029,-0.172221,-0.065221,2.783069,-0.8779049999999999,-1.195473,-0.322176,0.166163
449,1.383948,-0.860549,2.603451,0.6406729999999999,0.758201,-0.121122,0.562337,4.915695,-1.407162,-0.203874,-0.017172999999999997,0.804349
450,1.479092,-0.886827,2.5864830000000003,0.629219,0.775071,-0.057865,0.20231,5.448918,-1.241581,-0.08358,0.171203,0.8564940000000001
451,1.577348,-0.901232,2.589522,0.620631,0.784092,0.004065999999999999,-0.407149,4.3280660000000015,-0.402643,-0.023662,0.346004,0.807335
452,1.665264,-0.898827,2.610779,0.6197520000000001,0.782597,0.058721,-0.552034,3.29197,0.416999,0.6788770000000001,-0.074834,0.013834
453,1.7217209999999998,-0.889149,2.599509,0.622911,0.776536,0.094733,0.751581,3.26399,0.422936,0.750258,-0.096604,-0.262336
454,1.7587400000000002,-0.8803860000000001,2.566575,0.6256390000000001,0.770985,0.118989,0.962384,3.057248,0.792141,0.008074,0.101574,-0.175081
455,1.791075,-0.863931,2.536667,0.633761,0.760401,0.141906,0.583421,2.51228,1.007042,-0.165148,0.13635799999999998,-0.018859
456,1.823253,-0.849649,2.52416,0.639318,0.7510479999999999,0.164919,0.101918,1.82411,0.62641,-0.469,0.032353,0.221739
457,1.85016,-0.843575,2.513695,0.639023,0.747025,0.183314,0.402207,1.806423,0.261061,-0.367829,0.049347,0.088415
458,1.878181,-0.8437309999999999,2.500403,0.633525,0.747128,0.20111,0.364234,1.955374,0.074735,-0.039394,0.093768,-0.094131
459,1.911201,-0.843233,2.4896990000000003,0.626891,0.746797,0.22204,0.384562,2.103895,0.211419,0.136323,0.0222,0.005484
460,1.941561,-0.8407549999999999,2.473195,0.621585,0.745147,0.241637,0.5099819999999999,2.122136,0.336185,0.063824,-0.105696,0.024842
461,1.96855,-0.8387389999999999,2.454105,0.616221,0.743801,0.258904,0.561846,1.994266,0.300392,-0.077586,-0.132961,-0.058526
462,1.992158,-0.840239,2.436317,0.608919,0.744803,0.272922,0.571395,1.760765,0.077499,-0.122255,-0.06561900000000001,-0.204028
463,2.016107,-0.8456290000000001,2.422113,0.598577,0.748388,0.285692,0.5229659999999999,1.721194,-0.10759,-0.008673,-0.034109,-0.191637
464,2.041963,-0.851992,2.412103,0.5867359999999999,0.752594,0.29890300000000003,0.375495,1.6302450000000002,-0.145892,0.122508,0.002945,-0.180312
465,2.068264,-0.856943,2.406181,0.575391,0.755845,0.312448,0.246608,1.472897,-0.112407,0.158526,-0.018906,-0.25287800000000005
466,2.092172,-0.860735,2.40079,0.565268,0.758322,0.32468400000000003,0.277986,1.382042,-0.062934,0.162545,-0.094351,-0.32505100000000003
467,2.111469,-0.865266,2.389695,0.555946,0.7612680000000001,0.33375900000000003,0.5060140000000001,1.396885,0.019815,0.214729,-0.148154,-0.234989
468,2.119117,-0.867792,2.367351,0.5517350000000001,0.762903,0.336998,0.649266,1.341579,0.139462,0.272591,-0.098917,-0.232231
469,2.127248,-0.870891,2.344462,0.546966,0.764903,0.340222,0.738717,1.264836,0.33887399999999995,0.288102,-0.08575,-0.33973400000000004
470,2.124388,-0.870899,2.312545,0.5479310000000001,0.7649090000000001,0.33865300000000004,0.8395360000000001,1.08905,0.521403,0.253231,-0.095582,-0.4213560000000001
471,2.11356,-0.871064,2.275975,0.551458,0.7650140000000001,0.332636,1.145558,0.702905,0.651154,0.285425,0.089264,-0.283747
472,2.080948,-0.873501,2.220622,0.560383,0.766582,0.313566,1.868325,0.388158,0.946094,0.27142,0.5360149999999999,0.113634
473,2.028956,-0.871444,2.141264,0.577334,0.765259,0.284717,2.425077,0.594143,1.4314870000000002,0.14929,0.5872189999999999,0.051342
474,1.963015,-0.867981,2.03757,0.597286,0.763025,0.247067,3.395284,0.52228,1.512063,0.015294,0.56185,-0.239636
475,1.866749,-0.873079,1.901433,0.614538,0.766311,0.187377,4.691687,0.3406,1.067357,-0.174963,0.546784,-0.095367
476,1.740073,-0.880711,1.73445,0.627504,0.771192,0.107248,5.45125,0.011118,0.753686,-0.290315,0.948107,-0.4618930000000001
477,1.614319,-0.882343,1.570261,0.634742,0.7722289999999999,0.027643,5.037215,-0.010016,0.27119,-0.379966,1.193209,-0.544275
478,1.481468,-0.881359,1.419476,0.633567,0.771604,-0.05674700000000001,4.521054,-1.6732630000000002,-0.257986,-0.452369,0.705249,0.109603
479,1.314057,-0.8815120000000001,1.323461,0.615139,0.771702,-0.161494,2.07313,-6.253131,-0.47111,0.078678,0.307186,0.424785
480,1.14379,-0.870124,1.25708,0.586841,0.764409,-0.267014,2.717661,-5.077867,-0.031211000000000006,0.27000100000000005,0.273937,0.504182
481,1.012966,-0.832364,1.168877,0.571087,0.739525,-0.356319,3.646675,-2.31955,0.415056,0.312748,0.217491,0.365017
482,0.921717,-0.788844,1.094281,0.561366,0.709539,-0.425937,2.998204,-1.860046,0.35225300000000004,0.09406,0.158747,-0.061245000000000015
483,0.845226,-0.752031,1.048983,0.546355,0.6831229999999999,-0.484601,2.18434,-2.464694,0.417846,0.048173,0.117978,0.122388
484,0.76781,-0.7182149999999999,1.018077,0.522992,0.658042,-0.54172,1.907798,-2.988907,0.4155180000000001,0.049808,0.090539,0.276645
485,0.6901079999999999,-0.687194,0.99393,0.492126,0.634371,-0.5961420000000001,1.696425,-3.123036,0.30845900000000004,-0.04721,-0.066347,0.480313
486,0.619777,-0.659399,0.974599,0.459084,0.612642,-0.64336,1.417314,-2.689025,0.173494,-0.118263,-0.108827,0.47208
487,0.56392,-0.64354,0.957617,0.42759,0.6000310000000001,-0.676113,0.8269040000000001,-2.07994,-0.316383,-0.244912,-0.146815,0.465954
488,0.518863,-0.638117,0.932551,0.398311,0.595684,-0.6975020000000001,0.771034,-1.121711,-0.936502,-0.537914,-0.23917800000000006,0.30190300000000003
489,0.485809,-0.633726,0.8983479999999999,0.37626,0.592151,-0.712591,0.913729,-0.458693,-1.163886,-0.353738,-0.200656,0.182699
490,0.458635,-0.628063,0.863848,0.358238,0.587579,-0.725546,0.817932,-0.265059,-1.019525,-0.17360699999999998,-0.167809,0.122427
491,0.438707,-0.622368,0.83635,0.345125,0.582961,-0.735558,0.709762,-0.149403,-0.8110569999999999,-0.10837,-0.351943,0.238487
492,0.427853,-0.615853,0.816601,0.33869,0.577655,-0.7427,0.566433,0.112836,-0.466291,-0.157584,-0.366793,0.228479
493,0.424062,-0.610455,0.805006,0.33715,0.573241,-0.7468100000000001,0.408953,0.152062,-0.282639,-0.215446,-0.332381,0.17842
494,0.421803,-0.6056159999999999,0.796234,0.336594,0.5692689999999999,-0.750092,0.341237,0.120019,-0.202954,-0.26150500000000004,-0.375604,-0.184418
495,0.419311,-0.601463,0.789763,0.335683,0.5658489999999999,-0.753081,0.267823,0.003853,-0.126406,-0.219411,-0.351097,-0.330018
496,0.414421,-0.598272,0.785805,0.332722,0.5632149999999999,-0.756363,0.189642,-0.228392,-0.055083000000000014,-0.099232,-0.264952,-0.6132810000000001
497,0.404357,-0.597021,0.7837770000000001,0.32537,0.562181,-0.76032,-0.018825,-0.572763,-0.06891699999999999,0.021569,-0.105486,-0.717905
498,0.389817,-0.60242,0.782634,0.313123,0.566638,-0.762152,-0.31145700000000004,-0.7640600000000001,-0.19463,0.043795,0.024564,-0.658396
499,0.369005,-0.609172,0.780857,0.295808,0.5721890000000001,-0.764917,-0.316579,-1.159389,-0.16211199999999998,-0.012147,0.183732,-0.4107270000000001
500,0.350696,-0.6250819999999999,0.7883789999999999,0.278591,0.585164,-0.761558,-1.173303,-0.885869,0.111427,-0.26434,0.441524,0.412116
501,0.351594,-0.642696,0.802384,0.27568200000000004,0.599356,-0.751513,-0.8400209999999999,-0.188736,0.24425300000000005,-0.397981,0.556757,-0.208646
502,0.354182,-0.6606420000000001,0.8119460000000001,0.273851,0.613624,-0.740589,-1.020098,-0.219847,-0.077431,-0.302049,0.7555930000000001,-0.404965
503,0.374768,-0.6807449999999999,0.822501,0.284464,0.629372,-0.723167,-1.248809,1.633404,0.202743,-0.105952,0.110481,0.773781
504,0.443233,-0.7033510000000001,0.843521,0.327085,0.646777,-0.688982,-1.302971,3.151457,0.241012,-0.340146,0.201704,0.7135640000000001
505,0.5172479999999999,-0.722064,0.8539370000000001,0.371087,0.660935,-0.652273,-0.8259290000000001,3.3692290000000003,-0.285773,-0.177087,0.395462,0.5857439999999999
506,0.585745,-0.735781,0.8534379999999999,0.4098100000000001,0.671166,-0.617731,-0.432226,3.5173730000000005,-0.378284,0.08542999999999999,0.420783,0.440226
507,0.654083,-0.745371,0.849241,0.447098,0.678245,-0.58317,-0.27382199999999995,3.565018,-0.4424,0.263214,0.6007779999999999,0.190028
508,0.726057,-0.7580600000000001,0.847671,0.482124,0.6875140000000001,-0.543029,-0.624034,3.744132,-0.441871,0.354286,0.620271,0.189559
509,0.808712,-0.777121,0.85751,0.515736,0.70123,-0.492232,-1.068973,3.79338,-0.384154,0.175899,0.273563,0.260009
510,0.8950299999999999,-0.7975439999999999,0.8725959999999999,0.544963,0.715643,-0.436887,-1.020892,3.731738,-0.461719,0.023839,0.066721,0.232771
511,0.978288,-0.816347,0.8826809999999999,0.568144,0.728648,-0.382471,-0.73165,3.834706,-0.621132,-0.21925100000000006,-0.260448,0.13389
512,1.055717,-0.834872,0.884697,0.5841770000000001,0.741211,-0.330671,-0.40812,3.932381,-0.818755,-0.144022,-0.287933,0.316252
513,1.140791,-0.852771,0.876692,0.598006,0.753106,-0.274262,0.00368,4.925611,-1.007295,-0.123565,-0.252786,0.329148
514,1.23222,-0.8715620000000001,0.8527819999999999,0.607092,0.765335,-0.213779,0.527714,5.774451999999998,-1.148932,-0.066214,-0.217697,0.32655700000000004
515,1.328307,-0.886864,0.8212780000000001,0.61336,0.775094,-0.151719,0.8608819999999999,6.045178,-0.941853,0.01814,-0.114953,0.24220300000000006
516,1.41432,-0.8999159999999999,0.786486,0.6140800000000001,0.783275,-0.096881,0.8928459999999999,5.215761,-0.811312,0.049509,0.013204,0.092197
517,1.475612,-0.9126,0.765713,0.6089220000000001,0.791097,-0.058135,0.33920900000000004,3.029993,-0.6425310000000001,0.112238,0.025371,-0.100159
518,1.501067,-0.923177,0.762644,0.601824,0.7975220000000001,-0.042033,-0.07786,0.627397,-0.451164,0.243269,-0.06452000000000001,-0.09583
519,1.5140790000000002,-0.929576,0.769273,0.597212,0.801367,-0.033908999999999995,-0.250523,0.431022,-0.2107,0.249789,-0.234915,-0.051937
520,1.530779,-0.93126,0.773109,0.596345,0.802373,-0.023877,-0.004263,0.8118489999999999,-0.022529,0.140028,-0.263173,-0.065829
521,1.540565,-0.930957,0.76367,0.596793,0.802192,-0.018047,0.456971,0.921955,0.014735,-0.08126,-0.091056,-0.146748
522,1.549297,-0.928324,0.7503850000000001,0.599038,0.800617,-0.012881,0.20939,0.868756,0.212831,-0.110345,-0.135044,-0.229734
523,1.565332,-0.925841,0.752888,0.601154,0.799127,-0.003285,-0.143885,0.638564,0.009833,-0.07677,-0.118631,-0.195171
524,1.579359,-0.928747,0.7486149999999999,0.598816,0.80087,0.005128,0.300586,1.031011,-0.215097,-0.022232,0.048266,0.106933
525,1.600121,-0.934864,0.745003,0.593672,0.8045180000000001,0.017414,-0.163449,1.165194,-0.334946,-0.017088,0.044618,0.094646
526,1.635934,-0.943884,0.764933,0.585403,0.809843,0.038186000000000005,-0.690661,0.924965,-0.541283,0.177872,0.079073,-0.149285
527,1.674319,-0.952294,0.788027,0.576711,0.8147479999999999,0.059917,-0.5584279999999999,1.044345,-0.406985,0.48852,0.245311,-0.30045700000000003
528,1.711982,-0.956841,0.8031,0.5703729999999999,0.817376,0.081068,-0.307881,1.443211,-0.20492,0.467103,0.324104,-0.346357
529,1.7507099999999998,-0.958773,0.809359,0.5652520000000001,0.818487,0.102808,-0.091493,1.755177,-0.08630399999999999,0.409358,0.367655,-0.413813
530,1.782725,-0.960365,0.807891,0.560397,0.819401,0.120575,0.16789600000000002,1.55716,-0.075693,0.092649,0.394756,-0.480896
531,1.7965220000000002,-0.966413,0.7931699999999999,0.5538390000000001,0.8228530000000001,0.127183,0.7314039999999999,1.133202,-0.303017,0.038095,0.426979,-0.4121260000000001
532,1.778514,-0.979721,0.7497119999999999,0.545276,0.830342,0.114921,1.6765599999999998,0.77768,-0.393168,-0.035312,0.4567060000000001,-0.23484
533,1.727868,-0.990314,0.67665,0.541676,0.836198,0.085788,2.327692,0.304003,0.014707,-0.002064,0.323912,-0.13133599999999998
534,1.6395830000000002,-0.993416,0.574125,0.5445399999999999,0.8378950000000001,0.037516,3.111101,-0.348397,0.24747800000000006,0.020508,0.117335,-0.089808
535,1.521499,-0.986122,0.447333,0.551257,0.833892,-0.027197,3.604565,-0.691987,0.49492,-0.060031,-0.047988,-0.237436
536,1.407811,-0.962897,0.322766,0.563575,0.82085,-0.092676,3.546053,-0.453861,0.935382,0.014413,-0.088062,-0.219335
537,1.307166,-0.926824,0.22089,0.579634,0.799717,-0.156451,3.214714,-1.201882,1.271584,0.070131,-0.025593,-0.02899
538,1.210331,-0.8789319999999999,0.146358,0.596973,0.770058,-0.225019,2.624585,-2.458605,1.707043,0.236279,0.327415,0.093855
539,1.116904,-0.8315379999999999,0.108999,0.605522,0.7389680000000001,-0.29541300000000004,1.769037,-3.656059,1.670555,0.197914,0.481033,0.333499
540,1.024542,-0.786817,0.097361,0.603348,0.708109,-0.366813,1.321773,-4.442607,1.885288,0.173279,0.372671,0.507133
541,0.931151,-0.735158,0.090987,0.595092,0.670704,-0.442744,1.915599,-4.437627,1.989842,0.199556,0.4000510000000001,0.082651
542,0.8301879999999999,-0.680591,0.069471,0.57362,0.629253,-0.524406,2.525661,-4.289696,1.2312040000000002,0.137379,0.525472,-0.114418
543,0.7367100000000001,-0.641843,0.048468,0.5381520000000001,0.598673,-0.593282,1.30525,-3.778635,0.759484,-0.329564,0.50379,-0.053049
544,0.672918,-0.617554,0.041915,0.508151,0.5790420000000001,-0.637568,1.343152,-2.486727,0.262438,-0.34276100000000004,-0.445055,0.35386100000000004
545,0.627037,-0.593827,0.017082,0.4863,0.559537,-0.671141,1.513119,-1.167895,-0.15573900000000002,-0.078051,0.04877,0.07987799999999999
546,0.5997100000000001,-0.577214,0.001648,0.472962,0.545691,-0.691757,0.650243,-0.888826,0.067544,-0.053925,0.107721,0.016266
547,0.585205,-0.575444,0.002578,0.463411,0.544208,-0.699348,-0.237192,-0.6617890000000001,0.004438,-0.226244,-0.08919099999999999,0.16004200000000002
548,0.580403,-0.587222,0.009104,0.4565010000000001,0.55405,-0.696157,-0.847165,-0.264938,-0.141336,-0.355213,-0.16786600000000002,0.245031
549,0.586889,-0.608639,0.020537,0.454331,0.571751,-0.6831430000000001,-1.377372,0.139899,-0.222471,-0.303742,-0.269352,0.230781
550,0.6039770000000001,-0.63784,0.03372,0.456258,0.5954619999999999,-0.6612520000000001,-1.573903,0.590982,-0.435929,-0.291997,-0.342196,0.099408
551,0.626943,-0.668797,0.046048,0.460284,0.620043,-0.635363,-1.530733,0.899917,-0.47448,-0.157885,-0.48691,0.035814
552,0.6650739999999999,-0.7003729999999999,0.063967,0.471849,0.6445029999999999,-0.601643,-1.81157,1.631377,-0.401535,-0.07113799999999999,-0.46245,0.362126
553,0.7225159999999999,-0.737527,0.08875,0.4894310000000001,0.672459,-0.555207,-2.042078,2.2641560000000003,-0.469117,-0.159567,-0.434773,0.424287
554,0.782066,-0.765067,0.107735,0.508359,0.6925859999999999,-0.511758,-1.009708,2.41397,-0.4674390000000001,-0.152799,0.029399,0.156289
555,0.8329049999999999,-0.778637,0.103631,0.526706,0.70231,-0.478897,-0.045708,2.805632,-0.680193,-0.072635,0.471289,0.390548
556,0.89226,-0.794039,0.09348,0.5457,0.713191,-0.439967,-0.480798,3.610067,-0.873338,-0.250259,0.411077,0.666346
557,0.953326,-0.816891,0.087615,0.5580970000000001,0.729021,-0.396303,-0.347602,2.837264,-1.135268,-0.465674,0.15270799999999998,-0.051252
558,0.986227,-0.835111,0.070235,0.55966,0.741371,-0.370338,-0.034210000000000004,2.207084,-0.990198,-0.316572,0.077004,-0.180444
559,1.0336459999999998,-0.851937,0.065372,0.565786,0.752558,-0.336961,-0.436669,2.701523,-0.6795859999999999,0.111033,-0.2232,0.393495
560,1.087285,-0.864323,0.066189,0.574741,0.760656,-0.301786,-0.173453,2.592223,-0.481054,0.275463,-0.282125,0.472486
561,1.125486,-0.872612,0.050111,0.580137,0.766011,-0.276891,0.581595,2.544654,-0.694705,0.348925,-0.201741,0.414815
562,1.146663,-0.878958,0.010098,0.581429,0.7700739999999999,-0.262538,1.185369,2.582691,-0.873202,0.180626,0.082755,-0.232884
563,1.1730200000000002,-0.88705,-0.020994,0.582382,0.775211,-0.244702,0.368122,2.502871,-0.716439,-0.027938,0.176769,-0.299427
564,1.216801,-0.905351,-0.027459,0.579128,0.786642,-0.214024,-0.308229,2.356621,-1.118354,-0.016002000000000002,0.029032,0.07144500000000001
565,1.2475379999999998,-0.936225,-0.029224,0.562127,0.805326,-0.188318,-0.629811,0.962445,-1.705268,0.14698,-0.006940000000000001,0.013955
566,1.252677,-0.980454,-0.019256,0.528716,0.83075,-0.17410799999999998,-1.059213,-0.727216,-2.098139,0.716843,0.203018,0.26373800000000003
567,1.248142,-1.015275,0.012025,0.5001720000000001,0.849626,-0.167226,-1.59256,-1.725775,-0.7396699999999999,0.5881460000000001,0.563293,-0.08117100000000001
568,1.271715,-1.029972,0.07853099999999999,0.491988,0.8572850000000001,-0.151695,-1.999466,-1.5356610000000002,0.021022,0.676729,0.348984,-0.151757
569,1.321446,-1.038365,0.16333499999999998,0.49193,0.861575,-0.12527,-2.280954,-0.805862,0.240302,0.46858,0.210873,-0.110158
570,1.397191,-1.04206,0.246051,0.49686,0.863445,-0.087135,-1.898199,0.838493,0.282529,0.209118,0.191303,0.058387
571,1.478746,-1.042449,0.314456,0.501973,0.863641,-0.046338,-1.6904400000000002,1.059051,0.091418,0.017833,0.195425,-0.406818
572,1.5517,-1.048606,0.381411,0.498688,0.8667290000000001,-0.009524,-1.65199,0.600601,-0.378812,-0.019837,-0.0007160000000000001,-0.6901520000000001
573,1.609734,-1.059597,0.4401390000000001,0.488853,0.872158,0.019044,-1.265294,0.218898,-0.6298590000000001,0.040428,-0.09811,-0.685411
574,1.6449349999999998,-1.073124,0.478127,0.47607,0.8786959999999999,0.03536,-0.616699,0.052124,-0.77787,0.188725,-0.278507,-0.6593979999999999
575,1.6483169999999998,-1.085656,0.482165,0.464932,0.884609,0.036114,0.308568,-0.07900700000000001,-0.489229,0.103824,-0.3789030000000001,-0.554211
576,1.605491,-1.092939,0.440191,0.459601,0.8879819999999999,0.015952,1.439021,-0.410966,-0.239489,-6.7e-05,-0.401136,-0.453605
577,1.510145,-1.093927,0.3432,0.4581560000000001,0.888436,-0.027822000000000003,2.660308,-0.420671,0.062815,-0.14944100000000002,-0.254494,-0.26923600000000003
578,1.387814,-1.077266,0.209627,0.465829,0.880666,-0.086203,3.459146,-0.094659,0.691819,-0.087335,-0.12647,-0.146357
579,1.265289,-1.038475,0.078264,0.484033,0.8616309999999999,-0.152655,3.518014,-0.6416270000000001,1.293272,-0.077677,-0.097379,-0.052377
580,1.175707,-0.995346,-0.00318,0.502288,0.8389469999999999,-0.209462,2.206757,-1.380555,1.271173,-0.022277,0.437054,0.25250700000000004
581,1.092307,-0.960668,-0.038443,0.5086229999999999,0.819574,-0.263819,1.340259,-3.636667,1.187895,-0.211321,0.630545,0.460978
582,1.001273,-0.926749,-0.048102,0.505663,0.799672,-0.32377399999999995,0.984886,-4.144475,1.4135950000000002,0.096892,0.6033430000000001,0.430799
583,0.927663,-0.8862620000000001,-0.046456,0.5059899999999999,0.774713,-0.379201,1.310353,-3.451759,1.858292,0.28405,0.399069,-0.030634
584,0.8614450000000001,-0.833411,-0.048057,0.5101720000000001,0.740229,-0.437933,1.881731,-3.368225,2.051252,0.355596,0.457906,-0.313273
585,0.774317,-0.780596,-0.057429,0.496797,0.703703,-0.507931,2.007569,-4.452839,1.451043,0.077223,0.5954149999999999,0.005566
586,0.681604,-0.7347319999999999,-0.067938,0.467496,0.670388,-0.576218,2.003902,-3.887102,1.169351,-0.26785,0.40174,0.250641
587,0.629885,-0.6925439999999999,-0.069887,0.453349,0.638497,-0.62193,1.507608,-1.886429,1.311803,-0.212992,0.423011,-0.073261
588,0.589726,-0.658633,-0.07565,0.439806,0.6120359999999999,-0.657253,1.495188,-1.809027,0.349149,-0.12021099999999997,-0.378226,0.086208
589,0.5519229999999999,-0.6409999999999999,-0.08670499999999999,0.420246,0.597997,-0.6824899999999999,0.611583,-1.4181549999999998,0.071148,-0.06729500000000001,-0.122366,0.036021
590,0.527756,-0.6394890000000001,-0.086667,0.404085,0.5967859999999999,-0.693226,-0.24243,-1.078456,0.043383,-0.136126,-0.06365900000000001,0.196842
591,0.51965,-0.6497890000000001,-0.074793,0.39538,0.6050180000000001,-0.691106,-0.885199,-0.554876,0.20166,-0.309382,-0.201667,0.328374
592,0.526945,-0.6661520000000001,-0.056914,0.395379,0.617965,-0.679554,-1.171639,0.007665000000000002,0.16475499999999998,-0.420602,-0.381774,0.36385
593,0.545018,-0.6907939999999999,-0.037018,0.399577,0.63715,-0.6590739999999999,-1.642364,0.453331,-0.054885,-0.420238,-0.4169350000000001,0.237748
594,0.5756100000000001,-0.7231270000000001,-0.014292,0.408119,0.661732,-0.6289279999999999,-1.895717,0.976513,-0.134237,-0.379875,-0.470494,0.161261
595,0.6184,-0.753544,0.011245,0.422781,0.684228,-0.594213,-1.669964,1.478045,-0.010457,-0.041448,-0.51281,0.04807
596,0.677769,-0.778163,0.04139,0.446593,0.701972,-0.5547880000000001,-1.748778,2.177423,0.184649,-0.016203,-0.455466,0.321481
597,0.754864,-0.8070579999999999,0.079442,0.473895,0.722256,-0.5037560000000001,-1.953389,2.704271,-0.0546,-0.159503,-0.380825,0.375643
598,0.824809,-0.828734,0.098227,0.496326,0.7370770000000001,-0.45867,-0.703485,2.866806,-0.4915270000000001,0.080669,0.889709,0.582709
599,0.87618,-0.844145,0.089915,0.5104350000000001,0.747404,-0.425257,0.065514,2.633585,-0.90994,0.06656000000000001,0.879382,0.549296
600,0.910934,-0.851671,0.060928,0.5204449999999999,0.752382,-0.403805,0.391487,3.3001160000000005,-0.843356,0.056551,0.874403,0.527844
601,0.979055,-0.8659969999999999,0.059256,0.537722,0.761742,-0.361392,-0.690172,3.240579,-0.468412,0.021741,0.556908,0.035526
602,1.033134,-0.876724,0.067299,0.54942,0.768648,-0.327595,-0.414347,1.956016,-0.214875,0.218601,0.032423,0.017811
603,1.079091,-0.882878,0.081189,0.559709,0.772569,-0.29977,-0.587943,1.7841669999999998,0.02021,0.15896400000000002,-0.408281,0.356975
604,1.127518,-0.8846790000000001,0.09376,0.572307,0.773712,-0.271727,-0.177774,1.983704,0.114686,0.011754,-0.434692,0.356077
605,1.163047,-0.880958,0.085602,0.584237,0.771349,-0.252366,0.6065149999999999,2.130586,-0.000733,-0.168099,-0.206407,0.149064
606,1.18981,-0.879461,0.058306,0.591852,0.7703949999999999,-0.23707,0.871928,2.594793,-0.433172,-0.196726,-0.023783,-0.027548000000000003
607,1.2262540000000002,-0.883569,0.032319,0.597113,0.773008,-0.214278,0.653991,2.925043,-0.514166,-0.081137,0.006456999999999999,-0.103944
608,1.259952,-0.890066,0.002834,0.5991989999999999,0.777113,-0.192498,0.837829,2.62773,-0.648165,0.049315,-0.148344,0.037926
609,1.273602,-0.897544,-0.026652,0.596198,0.781798,-0.182594,0.617276,1.029527,-0.6508619999999999,0.071802,-0.117217,0.077873
610,1.256419,-0.910223,-0.027026,0.583498,0.78964,-0.189731,-0.7426470000000001,-1.79583,-0.476211,0.371885,0.26663400000000004,0.31383
611,1.238013,-0.91785,0.008922,0.574199,0.794297,-0.198464,-1.146216,-2.535671,0.273946,0.607885,0.077422,0.031564
612,1.231298,-0.911488,0.04969,0.5776060000000001,0.790416,-0.203994,-1.1304610000000002,-1.302327,0.8535889999999999,0.73027,0.061055,-0.14714100000000002
613,1.270752,-0.8967229999999999,0.08974700000000001,0.596288,0.7812859999999999,-0.184482,-0.64712,1.313607,1.328971,0.416225,0.215785,0.069935
614,1.3191190000000002,-0.8774360000000001,0.123001,0.6189899999999999,0.769103,-0.15916,-0.949747,0.73685,0.903513,0.212568,0.6503,-0.553974
615,1.3628,-0.8729680000000001,0.15695599999999998,0.628706,0.766239,-0.132688,-0.932388,1.292468,0.204305,0.21647800000000006,0.473125,-0.175098
616,1.414687,-0.878984,0.18906,0.6301760000000001,0.770091,-0.099184,-1.238722,1.334571,-0.201677,0.182644,0.411458,-0.320998
617,1.479947,-0.8901209999999999,0.236143,0.6267229999999999,0.777148,-0.057095000000000014,-1.704028,1.493932,-0.489278,0.462297,0.433759,-0.06589099999999999
618,1.557358,-0.90377,0.299761,0.6185970000000001,0.785665,-0.008313,-2.205966,1.278784,-0.596126,0.467692,0.465495,-0.059436
619,1.6407770000000002,-0.918807,0.378167,0.605283,0.794878,0.042428,-2.400603,0.959576,-1.053208,0.247637,0.475751,-0.293038
620,1.7181240000000002,-0.939305,0.455259,0.583954,0.807148,0.08666,-2.002572,0.671774,-1.356647,-0.030930000000000006,0.306256,-0.574285
621,1.7799900000000002,-0.961513,0.517811,0.5598029999999999,0.820058,0.118846,-1.330832,0.5088729999999999,-1.42759,-0.052341999999999986,0.162272,-0.699687
622,1.826859,-0.983697,0.5656100000000001,0.535886,0.832551,0.1403,-0.8992389999999999,0.212081,-1.373989,-0.054075,-0.184373,-0.732784
623,1.84594,-1.007885,0.591907,0.513578,0.8457049999999999,0.144985,0.061372,-0.323185,-1.283272,-0.000653,-0.342928,-0.475566
624,1.814376,-1.0307620000000002,0.568517,0.498988,0.857691,0.124006,1.360926,-0.73249,-0.7523770000000001,0.035222,-0.343943,-0.273664
625,1.731168,-1.047117,0.498335,0.493653,0.865985,0.079854,2.126028,-1.399724,-0.25800100000000004,0.09085,-0.162982,-0.226949
626,1.618508,-1.0501049999999998,0.408777,0.496914,0.867475,0.023727,2.287713,-1.915927,0.286447,-0.046215,-0.148847,-0.178146
627,1.497851,-1.037162,0.30917,0.507313,0.860964,-0.037072,2.691958,-1.47817,0.752318,-0.109074,-0.195025,-0.030067
628,1.390105,-1.015174,0.198768,0.518885,0.8495719999999999,-0.094792,3.126198,-0.13284300000000002,0.671374,-0.054331,0.00196,0.146016
629,1.304435,-0.989641,0.086424,0.52963,0.835829,-0.144507,3.209254,0.636578,0.526758,-0.138456,0.26732100000000003,0.082526
630,1.233237,-0.961356,-0.002826,0.5401050000000001,0.819968,-0.189573,2.466081,-0.256444,0.7181960000000001,-0.167821,0.340997,0.113066
631,1.170124,-0.926583,-0.054445000000000014,0.553004,0.799573,-0.234244,1.922408,-1.7354040000000002,1.2781790000000002,-0.195231,0.286121,0.178489
632,1.079812,-0.88738,-0.086036,0.556852,0.77542,-0.297723,1.541529,-4.1838,1.439957,0.042467000000000005,0.393861,-0.048819
633,0.982484,-0.8425959999999999,-0.096109,0.553638,0.746373,-0.36934,1.449396,-4.262116000000002,1.923319,0.225781,0.250407,0.136826
634,0.914138,-0.793449,-0.09161,0.555527,0.712777,-0.428181,1.23271,-3.311128,2.186574,0.419738,0.109535,0.320667
635,0.857768,-0.7412270000000001,-0.077171,0.55794,0.675193,-0.482511,1.2647540000000002,-3.5200050000000003,2.445575,0.320081,0.124657,-0.15420699999999998
636,0.788505,-0.687866,-0.060365,0.548007,0.63489,-0.544613,1.492001,-4.146568,2.294141,0.393384,0.153791,-0.15695599999999998
637,0.719171,-0.632217,-0.054965,0.531436,0.590934,-0.606937,2.049758,-3.195518,1.871666,0.354032,0.149483,0.072864
638,0.6617810000000001,-0.585294,-0.059309,0.512235,0.5524439999999999,-0.657587,1.7374459999999998,-2.750162,1.06027,-0.757078,-0.08551,0.337717
639,0.597781,-0.55474,-0.064144,0.478409,0.526722,-0.70263,1.185291,-3.090509,0.604991,-0.6382909999999999,-0.035038,0.414178
640,0.542737,-0.527993,-0.072265,0.446147,0.5038,-0.739688,1.415504,-2.211429,0.3491,-0.15120999999999998,-0.045945,0.240481
641,0.497584,-0.5029560000000001,-0.082847,0.418195,0.482018,-0.769917,1.188444,-1.890269,0.151618,-0.220335,0.036003,0.232929
642,0.463749,-0.486309,-0.089754,0.395446,0.467366,-0.790691,0.661701,-1.389718,0.107773,-0.28482,-0.004902,0.405437
643,0.43876,-0.478582,-0.090851,0.377089,0.460521,-0.80357,0.221377,-1.073972,0.117111,-0.341078,-0.14106300000000002,0.270138
644,0.4228,-0.478444,-0.08897000000000001,0.364242,0.460398,-0.8095439999999999,-0.174473,-0.681335,0.040136,-0.25845300000000004,-0.123881,0.199619
645,0.414774,-0.486558,-0.087594,0.356216,0.467586,-0.808995,-0.516251,-0.295664,-0.206301,-0.211166,-0.187206,0.130162
646,0.410977,-0.502581,-0.089115,0.350103,0.481689,-0.80337,-0.8234739999999999,-0.087883,-0.485382,-0.22702600000000006,-0.205291,0.074519
647,0.411059,-0.526796,-0.092178,0.345406,0.5027659999999999,-0.7924140000000001,-1.22164,0.180462,-0.646604,-0.155282,-0.165654,0.103358
648,0.419846,-0.5602590000000001,-0.090994,0.345302,0.531406,-0.773547,-1.754805,0.545317,-0.583498,-0.12057,-0.16990999999999998,0.099902
649,0.439099,-0.599068,-0.082101,0.351094,0.563873,-0.747516,-1.914331,0.856137,-0.385253,0.060848,-0.216842,-0.131512
650,0.468264,-0.6345529999999999,-0.06842899999999999,0.363479,0.5928180000000001,-0.718645,-1.843127,1.2215790000000002,-0.194012,0.189774,-0.201979,-0.073226
651,0.506382,-0.675012,-0.047971,0.378652,0.624907,-0.682725,-2.409792,1.310309,-0.313452,0.069453,-0.107878,0.145601
652,0.555678,-0.718377,-0.028855,0.397156,0.6581640000000001,-0.639599,-1.880107,2.147742,-0.537288,-0.459916,0.324884,-0.022647
653,0.591809,-0.757012,-0.020102,0.405506,0.686752,-0.603271,-1.821907,0.618641,-1.012418,-0.593449,0.8719180000000001,-0.6820069999999999
654,0.617452,-0.781501,-0.015688,0.410979,0.704346,-0.578786,-1.018127,2.375036,-0.050859,0.701158,0.85144,0.27620500000000003
655,0.722716,-0.807057,0.021581,0.457459,0.722255,-0.518728,-2.140686,4.3355510000000015,0.287028,0.222366,0.079564,0.610693
656,0.8276610000000001,-0.828519,0.06014700000000001,0.497749,0.736931,-0.45736,-1.250227,3.339336,0.093699,-0.216591,-0.25222,0.176171
657,0.895308,-0.839608,0.075987,0.521117,0.7443810000000001,-0.417532,-0.586144,2.704256,-0.17110899999999998,-0.260115,-0.276669,0.178152
658,0.962021,-0.852088,0.083372,0.5401279999999999,0.752657,-0.376522,-0.588428,3.3201370000000003,-0.473152,-0.208723,-0.240786,0.304104
659,1.033728,-0.868123,0.084674,0.555275,0.763117,-0.330639,-0.356727,3.581348,-0.7282420000000001,-0.132652,-0.220072,0.356808
660,1.100798,-0.8839530000000001,0.07974099999999999,0.565344,0.773251,-0.287174,-0.216055,3.522365,-0.751753,0.006296,-0.135037,0.34920100000000004
661,1.166686,-0.898386,0.075781,0.572703,0.7823220000000001,-0.244914,-0.181014,3.33865,-0.660474,0.115377,-0.064045,0.252941
662,1.211776,-0.910524,0.067298,0.574227,0.789825,-0.215498,0.153223,1.964412,-0.675606,0.17028,-0.035019,-0.103777
663,1.2254200000000002,-0.921147,0.054397,0.569186,0.796296,-0.204792,0.124766,0.956353,-0.5741,0.197324,-0.03859,-0.230755
664,1.24634,-0.930369,0.049768,0.566361,0.80184,-0.190491,-0.064256,1.512595,-0.45222,0.113174,-0.113364,-0.057082000000000015
665,1.281977,-0.939483,0.04504,0.56576,0.807253,-0.168103,0.044527,2.166494,-0.501436,-0.030008,-0.133394,0.091275
666,1.319685,-0.951405,0.042107,0.5623319999999999,0.814232,-0.144253,-0.195528,1.733481,-0.698042,-0.065903,-0.122536,0.106564
667,1.334143,-0.972795,0.053614,0.5473,0.826462,-0.131994,-0.8663120000000001,-0.7138680000000001,-1.07881,-0.031752,-0.081513,0.053609
668,1.338544,-0.997756,0.093445,0.5276310000000001,0.8402569999999999,-0.124796,-1.551397,-1.669157,-0.817453,0.377077,0.356246,-0.071112
669,1.351239,-1.016189,0.141368,0.513968,0.850107,-0.114694,-1.446914,-1.114788,-0.482011,0.534921,0.391241,-0.286124
670,1.389416,-1.028834,0.195484,0.507356,0.856698,-0.093047,-1.499999,0.157335,-0.215889,0.6132489999999999,0.350333,-0.293137
671,1.460744,-1.031221,0.253222,0.510664,0.857927,-0.056428,-1.504944,1.398726,0.231131,0.467028,0.175093,-0.026138
672,1.54358,-1.0275,0.316423,0.5167689999999999,0.856009,-0.014068,-1.701371,1.469328,0.327944,0.370133,0.240029,-0.222382
673,1.6343219999999998,-1.024545,0.387281,0.51844,0.8544780000000001,0.032979,-1.873534,1.464051,-0.067425,0.261147,0.310988,-0.390706
674,1.713518,-1.027075,0.45448,0.512065,0.8557889999999999,0.07358300000000001,-1.579073,0.843512,-0.45127,-0.0058850000000000005,0.094818,-0.8819170000000001
675,1.768291,-1.03438,0.50473,0.501124,0.8595459999999999,0.100276,-0.96626,0.5362979999999999,-0.61217,0.066426,0.050275,-0.943004
676,1.802559,-1.043794,0.52889,0.489497,0.8643190000000001,0.115523,-0.20272,0.745424,-0.557966,0.16689,0.019531,-0.871749
677,1.807648,-1.05562,0.522849,0.478933,0.8702059999999999,0.115606,0.567388,0.260045,-0.523123,0.04542,-0.28123200000000004,-0.498937
678,1.769964,-1.068553,0.486177,0.4718770000000001,0.876505,0.095245,1.291601,-0.594202,-0.378101,-0.020354,-0.264246,-0.379043
679,1.687009,-1.078684,0.410553,0.4693020000000001,0.881337,0.054786,2.232392,-0.853136,-0.110551,-0.078997,-0.174397,-0.204154
680,1.564176,-1.080407,0.287468,0.470959,0.882149,-0.003118,3.27563,-0.5863619999999999,0.202974,-0.205807,-0.092705,-0.027735000000000003
681,1.423824,-1.06357,0.134965,0.4805180000000001,0.8740950000000001,-0.071136,3.887386,-0.158289,0.779265,-0.187229,-0.085231,0.082351
682,1.3041280000000002,-1.02924,-0.001086,0.497251,0.856907,-0.13583599999999998,3.711452,-0.210414,1.179756,-0.111493,0.096721,0.25250500000000003
683,1.2061,-0.985562,-0.100553,0.516065,0.833583,-0.19702,2.837353,-1.084676,1.322185,-0.023938,0.370763,0.107146
684,1.128637,-0.941892,-0.143267,0.531686,0.808673,-0.251711,1.452465,-2.872041,1.681202,0.045112,0.435071,-0.002302
685,1.053936,-0.8925049999999999,-0.15796,0.545501,0.778646,-0.31006300000000003,1.835018,-2.964808,2.170034,0.306549,0.165187,0.392567
686,0.978842,-0.833299,-0.17205399999999998,0.5580229999999999,0.740154,-0.375209,1.882905,-3.63531,2.239594,0.216055,0.192066,0.06841599999999999
687,0.881605,-0.782745,-0.176727,0.5471630000000001,0.705228,-0.45085,1.575535,-5.1373440000000015,1.706329,0.122134,0.263552,-0.008058
688,0.76855,-0.7356699999999999,-0.192457,0.515329,0.671084,-0.532993,2.316615,-4.982627,1.002008,-0.081232,0.436216,0.109791
689,0.649998,-0.6897270000000001,-0.227479,0.466851,0.6363260000000001,-0.614116,2.70955,-4.688122,0.27371100000000004,-0.187097,0.288036,0.032848
690,0.55733,-0.6436149999999999,-0.26125,0.423102,0.6000909999999999,-0.678878,2.3501540000000003,-2.780992,0.247393,-0.106238,0.225913,0.090698
691,0.498391,-0.60192,-0.281015,0.394002,0.566226,-0.723982,2.357871,-2.26855,0.229698,-0.107823,-0.392764,0.142806
692,0.444924,-0.565656,-0.308297,0.36335,0.53597,-0.762045,1.806523,-1.785168,-0.293928,-0.034279000000000004,-0.10555,-0.035776
693,0.397909,-0.545751,-0.326824,0.331203,0.5190600000000001,-0.78796,0.900133,-1.945951,-0.325691,-0.010525,0.039625,-0.043827
694,0.356376,-0.540021,-0.335567,0.299234,0.514154,-0.8038069999999999,0.180927,-1.70813,-0.301109,-0.11773,-0.052393,0.223377
695,0.32747600000000004,-0.546506,-0.340385,0.274804,0.519705,-0.8089430000000001,-0.494717,-1.058107,-0.299184,-0.190011,-0.081915,0.230239
696,0.314479,-0.564997,-0.34074,0.26124899999999995,0.5354140000000001,-0.8031689999999999,-1.097761,-0.387072,-0.287164,-0.172535,-0.137434,0.220177
697,0.317176,-0.595148,-0.332872,0.258261,0.560631,-0.786762,-1.859848,0.044879,-0.021712,-0.223624,-0.108345,0.130908
698,0.334117,-0.635289,-0.315827,0.263955,0.59341,-0.760389,-2.222851,0.57513,0.09044,-0.226556,-0.345516,0.293958
699,0.368406,-0.679612,-0.28889000000000004,0.280114,0.628491,-0.725627,-2.494352,1.088925,0.242778,-0.174035,-0.406262,0.126445
700,0.410769,-0.718913,-0.261656,0.300493,0.658567,-0.689923,-1.992011,1.255625,0.210822,-0.135714,-0.4145180000000001,-0.233768
701,0.4501060000000001,-0.744484,-0.239606,0.31996,0.677593,-0.662189,-1.225134,1.228366,0.235441,0.021211,-0.534099,-0.330289
702,0.488602,-0.7601899999999999,-0.219071,0.340171,0.689059,-0.639907,-0.965356,1.206821,0.33662800000000004,-0.034629,-0.489886,0.0121
703,0.529412,-0.767133,-0.200386,0.36357,0.694074,-0.621352,-0.217814,1.492399,0.466466,-0.242553,-0.243863,-0.184373
704,0.57381,-0.7648590000000001,-0.187525,0.391645,0.692435,-0.605927,-0.362141,2.024932,0.351544,-0.104292,0.215066,0.394395
705,0.6253890000000001,-0.769212,-0.18017,0.420595,0.695569,-0.58248,-0.393597,2.742336,-0.005313,-0.140596,0.6136199999999999,0.569541
706,0.690904,-0.7789159999999999,-0.17139400000000002,0.453504,0.702508,-0.548467,-0.5691930000000001,2.816548,-0.030136000000000007,-0.40611,0.479178,0.241567
707,0.744633,-0.782586,-0.164794,0.480553,0.7051149999999999,-0.521422,-0.195465,2.5133650000000003,0.073276,0.010749,0.355279,0.570662
708,0.808708,-0.789082,-0.16100699999999998,0.50963,0.709707,-0.486409,-0.426102,3.307083,-0.280797,-0.04738,0.311075,0.55019
709,0.876447,-0.801597,-0.159339,0.534517,0.718467,-0.445079,-0.425115,3.320693,-0.488042,-0.12725999999999998,0.23365,0.408885
710,0.943092,-0.8144939999999999,-0.16203399999999998,0.555424,0.727379,-0.403019,-0.273192,3.5379410000000004,-0.6026279999999999,-0.07578,0.182503,0.174457
711,1.0124959999999998,-0.828024,-0.167502,0.5736359999999999,0.736596,-0.358284,-0.193849,3.733133,-0.732647,-0.093991,0.173285,0.129723
712,1.081677,-0.8464659999999999,-0.176583,0.584938,0.7489439999999999,-0.311338,-0.183252,3.849524,-1.076689,0.087349,0.33502600000000005,0.033338
713,1.153341,-0.8670260000000001,-0.190199,0.591526,0.762408,-0.262356,0.022661,4.28785,-1.1132,0.241161,0.16168,0.244854
714,1.242715,-0.882785,-0.196632,0.601132,0.772511,-0.204615,-0.20599,4.898311,-0.663722,0.231555,0.151577,0.187113
715,1.3387129999999998,-0.8991450000000001,-0.197711,0.605596,0.782795,-0.143128,-0.120407,4.710424,-0.904301,0.080134,0.022121,0.233429
716,1.425922,-0.914164,-0.19897,0.604058,0.792053,-0.08813,-0.075784,4.0792410000000014,-0.5421199999999999,-0.059075,-0.22000100000000006,0.064876
717,1.505392,-0.919278,-0.18619,0.6050979999999999,0.795164,-0.039633,-0.588359,3.187784,-0.142907,0.008442,-0.207182,0.052511
718,1.582594,-0.922591,-0.16288,0.603715,0.7971689999999999,0.007123,-0.782105,2.811339,-0.140573,0.043578,-0.198521,0.091785
719,1.652753,-0.925709,-0.139126,0.59925,0.7990470000000001,0.049223,-0.5952029999999999,2.296498,-0.224066,-0.087913,-0.19216,0.010317
720,1.6975189999999998,-0.929889,-0.12650899999999998,0.593129,0.801554,0.075568,-0.25956,1.461329,-0.25056100000000003,-0.122654,-0.148279,-0.085501
721,1.729926,-0.933929,-0.112713,0.587166,0.803963,0.094232,-0.428761,0.840883,-0.256289,-0.149452,-0.005699,-0.233484
722,1.7569709999999998,-0.938116,-0.098267,0.58109,0.806445,0.109452,-0.294852,0.90773,-0.308859,-0.054891,-0.093295,-0.176591
723,1.781197,-0.944862,-0.09497,0.5729350000000001,0.810416,0.122357,0.115137,1.164292,-0.355462,-0.062071,-0.14669,-0.19212
724,1.803793,-0.952955,-0.096856,0.563624,0.815131,0.133751,0.104899,1.212458,-0.403666,-0.038859,-0.110404,-0.072671
725,1.83056,-0.961413,-0.09423,0.5531590000000001,0.820001,0.14701199999999998,-0.006876999999999999,1.228982,-0.442923,-0.036069,-0.17222,0.003378
726,1.858961,-0.970831,-0.08835,0.541334,0.825355,0.160459,-0.045207,1.153853,-0.53603,-0.004957,-0.13726,-0.098249
727,1.888895,-0.981037,-0.07941799999999999,0.5282600000000001,0.831074,0.17394600000000002,-0.128437,1.13185,-0.5558109999999999,0.103698,-0.10265,-0.190013
728,1.897936,-0.979355,-0.087757,0.527988,0.8301379999999999,0.17916300000000002,-0.27263000000000004,1.232983,-0.41595,0.194241,-0.154021,-0.16459100000000002
729,1.933654,-0.983065,-0.073236,0.518371,0.832201,0.196809,-0.32719000000000004,1.112194,-0.26555700000000004,0.22200100000000006,-0.155184,-0.196825
730,1.961597,-0.985251,-0.06361900000000001,0.510987,0.833411,0.210522,-0.088215,0.982024,-0.15476199999999998,0.213882,-0.183997,-0.4188810000000001
731,1.978961,-0.9877,-0.06906699999999999,0.505379,0.8347620000000001,0.218552,0.351394,1.149243,0.004055,0.295631,-0.260741,-0.264038
732,1.983657,-0.990843,-0.088291,0.501942,0.8364879999999999,0.219869,0.6402479999999999,0.947575,0.102471,0.383053,-0.226838,-0.08659800000000001
733,1.978338,-0.993149,-0.118899,0.501332,0.837749,0.216431,0.936577,1.117131,0.333991,0.429821,0.029957,0.027389
734,1.9588,-0.991611,-0.16905499999999998,0.506656,0.836909,0.207082,1.403532,1.029481,0.802041,0.365338,0.4484,0.092249
735,1.917214,-0.979506,-0.233883,0.5243180000000001,0.8302219999999999,0.189265,1.382863,0.363432,1.414842,0.256672,0.589303,-0.008494
736,1.85956,-0.960446,-0.298058,0.549424,0.8194469999999999,0.163216,1.615349,-0.582379,1.441179,-0.112931,0.5002850000000001,-0.5030439999999999
737,1.775668,-0.947823,-0.382502,0.5712510000000001,0.8121470000000001,0.118699,2.6042650000000003,-0.770616,1.03813,-0.09565,0.256258,-0.255738
738,1.665315,-0.942026,-0.499011,0.585526,0.808751,0.055509,3.730243,-0.840051,0.643364,-0.08692899999999999,0.278376,-0.115415
739,1.533555,-0.936667,-0.6377229999999999,0.592066,0.805588,-0.022059,4.195966,-1.117031,0.242116,-0.106867,0.5569,-0.128331
740,1.394997,-0.925776,-0.771329,0.5919479999999999,0.799088,-0.10515,3.853015,-1.883155,0.054832000000000006,-0.307722,0.675461,-0.217711
741,1.25849,-0.912363,-0.8844709999999999,0.582281,0.7909510000000001,-0.188002,3.271563,-2.481553,-0.311658,-0.352102,0.528339,0.08263999999999999
742,1.134676,-0.902972,-0.97596,0.5613130000000001,0.785171,-0.2616,2.508442,-2.724367,-0.732216,-0.368381,0.188355,0.277988
743,1.028776,-0.8946959999999999,-1.043456,0.536065,0.7800189999999999,-0.322807,1.863211,-2.435444,-0.497811,-0.15718900000000002,0.044993,0.130821
744,0.947276,-0.879014,-1.101596,0.517874,0.7701100000000001,-0.372474,2.1089740000000003,-1.453797,-0.310414,0.086344,-0.080321,0.014396
745,0.8824549999999999,-0.8543370000000001,-1.16068,0.507184,0.7541359999999999,-0.417185,2.290369,-0.7660319999999999,-0.100656,0.17525,-0.07193,0.021754
746,0.8361700000000001,-0.827838,-1.204979,0.501995,0.736471,-0.453444,1.722448,-0.658259,0.080041,0.047367,-0.013097,0.13008
747,0.8007449999999999,-0.8098069999999999,-1.231224,0.495074,0.724154,-0.480107,1.079056,-0.97533,0.009724,-0.076678,-0.096499,0.208226
748,0.76379,-0.797882,-1.251055,0.482937,0.715879,-0.504271,0.778971,-1.165527,-0.118179,-0.253627,-0.39781,0.332579
749,0.734255,-0.793604,-1.262217,0.469882,0.712885,-0.520582,0.194141,-0.970658,-0.12465,-0.359576,-0.413782,0.351682
750,0.720812,-0.796334,-1.262947,0.461556,0.714797,-0.5253869999999999,-0.220663,-0.449351,-0.128216,-0.360283,-0.386809,0.3065
751,0.721038,-0.805262,-1.260379,0.457443,0.721012,-0.520468,-0.470024,0.158341,-0.29951500000000003,-0.335953,-0.25124,0.270758
752,0.730394,-0.8185140000000001,-1.259314,0.455877,0.7301310000000001,-0.509003,-0.536782,0.5534560000000001,-0.482086,-0.308477,-0.15872,0.17154
753,0.745586,-0.834569,-1.26008,0.455545,0.741007,-0.493342,-0.612496,0.943982,-0.574982,-0.26391,-0.14643299999999998,0.08942699999999999
754,0.769572,-0.851083,-1.258676,0.458668,0.751995,-0.473421,-0.62212,1.236724,-0.514536,-0.163517,-0.029186,-0.083479
755,0.797531,-0.8671770000000001,-1.256987,0.463002,0.762505,-0.451901,-0.613866,1.391242,-0.534972,-0.120366,-0.039895,-0.117847
756,0.830656,-0.88341,-1.252406,0.468512,0.772907,-0.427915,-0.7053659999999999,1.541386,-0.440732,-0.061362,-0.092228,-0.14429
757,0.8737219999999999,-0.898632,-1.240674,0.477424,0.7824760000000001,-0.399747,-0.8180850000000001,1.804177,-0.260258,-0.07749099999999999,-0.122152,-0.217761
758,0.926343,-0.911767,-1.222996,0.489529,0.790587,-0.367876,-0.819643,2.02008,-0.17188299999999998,-0.054684,-0.076567,-0.405943
759,0.981263,-0.923607,-1.207693,0.501169,0.7977810000000001,-0.335222,-0.643628,2.180613,-0.243499,-0.022913,-0.050482,-0.5328649999999999
760,1.025495,-0.93142,-1.197844,0.510157,0.8024680000000001,-0.309491,-0.341326,1.45991,-0.095185,0.047064,-0.022774000000000003,-0.654528
761,1.04283,-0.931739,-1.197643,0.515224,0.802658,-0.300473,0.204717,0.579757,0.022988,0.335652,0.104614,-0.557056
762,1.042918,-0.924776,-1.208695,0.520066,0.7984859999999999,-0.303236,0.548956,0.432987,0.197564,0.22297600000000006,0.130179,-0.528338
763,1.0424129999999998,-0.915337,-1.215586,0.5263979999999999,0.792768,-0.307283,0.277379,0.031504000000000004,0.401281,-0.242936,0.0033740000000000003,-0.363234
764,1.047206,-0.907287,-1.203223,0.533375,0.787836,-0.307938,-0.390884,-0.346145,0.582967,-0.32568800000000003,-0.262537,-0.355285
765,1.0651469999999998,-0.905813,-1.174131,0.539829,0.786927,-0.29888200000000004,-0.8282639999999999,-0.054089,0.387258,-0.265415,-0.132645,-0.344749
766,1.0918370000000002,-0.91211,-1.159585,0.543204,0.790797,-0.28208,-0.4481350000000001,1.415504,-0.352248,0.393792,1.452245,0.222342
767,1.134194,-0.923883,-1.1604219999999998,0.546187,0.797948,-0.254871,-0.08416799999999999,2.318981,-0.4320479999999999,0.047975,1.445964,0.589878
768,1.159536,-0.91437,-1.168103,0.559403,0.7921779999999999,-0.243973,0.695634,1.09076,0.744676,-0.356262,0.675138,0.658798
769,1.177549,-0.8909540000000001,-1.17928,0.580684,0.777672,-0.2409,0.7261029999999999,1.655531,0.940718,-0.6627,-0.187111,0.170237
770,1.221811,-0.8771450000000001,-1.176961,0.600809,0.768917,-0.218622,-0.194474,2.387225,0.445172,-0.8483219999999999,-0.042537,0.064707
771,1.280297,-0.881492,-1.162975,0.609352,0.7716890000000001,-0.18217,-0.514315,2.33516,-0.375253,-0.8769,0.056924,0.056041
772,1.334547,-0.896091,-1.165061,0.607316,0.780891,-0.146209,0.172575,3.2231970000000003,-0.869384,-0.378709,-0.016288,0.476653
773,1.418137,-0.921482,-1.167922,0.5976090000000001,0.796499,-0.091946,0.519582,4.101351,-0.997336,0.009447,0.092662,0.6200829999999999
774,1.499849,-0.933113,-1.176695,0.593838,0.803477,-0.042202,-0.116958,4.606936,-0.34120100000000003,0.31750900000000004,0.232793,0.698284
775,1.599579,-0.931325,-1.160655,0.5965239999999999,0.802412,0.017174000000000002,-0.505393,4.096288,0.356426,0.397937,0.038226,0.325675
776,1.675627,-0.92151,-1.1672,0.601299,0.796516,0.063266,0.619629,4.1035650000000015,0.491393,0.272465,-0.050285,-0.24847800000000006
777,1.729816,-0.913769,-1.195899,0.60306,0.7918109999999999,0.096715,0.7610859999999999,3.53208,0.4931140000000001,-0.015764,0.046522,-0.465688
778,1.769612,-0.908332,-1.220465,0.602946,0.788479,0.12148,0.6134350000000001,2.626449,0.391762,-0.175258,0.065724,-0.007268000000000002
779,1.804186,-0.903924,-1.238651,0.601762,0.78576,0.14305199999999998,0.442985,2.35894,0.304388,-0.222581,-0.052072,0.31910700000000003
780,1.838134,-0.90187,-1.254463,0.598115,0.784488,0.16382,0.52888,2.336847,0.160806,-0.181672,-0.050967,0.250548
781,1.868088,-0.903995,-1.274824,0.591346,0.785804,0.181171,0.649551,2.243159,0.042129,-0.118827,-0.032935,0.09747
782,1.897186,-0.90592,-1.294642,0.58439,0.786993,0.197814,0.609578,2.243916,0.15401199999999998,0.130499,-0.095297,-0.089034
783,1.9253,-0.906125,-1.318355,0.578447,0.7871199999999999,0.214107,0.739965,2.40706,0.267945,0.072127,-0.122737,-0.119182
784,1.952598,-0.907011,-1.344767,0.5717409999999999,0.787665,0.229556,0.7772819999999999,2.352797,0.219137,0.020636,-0.110175,-0.13626300000000002
785,1.977095,-0.910577,-1.367947,0.563362,0.789858,0.24238,0.692194,1.990574,0.034204000000000005,0.07859,-0.121034,-0.139016
786,1.999395,-0.91661,-1.386241,0.553473,0.793543,0.252896,0.587148,1.760263,-0.088012,0.17208199999999998,-0.152018,-0.196683
787,2.023357,-0.922163,-1.398756,0.543284,0.79691,0.264154,0.370086,1.6672169999999995,-0.07445299999999999,0.22727,-0.123921,-0.250391
788,2.0516650000000003,-0.924834,-1.40277,0.5337,0.798521,0.278439,0.049198,1.492533,-0.067925,0.263313,-0.138548,-0.309873
789,2.079461,-0.925351,-1.400748,0.525395,0.798832,0.292964,-0.051478,1.197686,-0.039409,0.293224,-0.167988,-0.329905
790,2.09916,-0.925477,-1.401861,0.5194350000000001,0.798908,0.303205,0.07395,0.928511,0.033383,0.35036100000000003,-0.172351,-0.322324
791,2.109903,-0.925754,-1.408231,0.515958,0.799075,0.308654,0.251931,0.736853,0.122466,0.373034,-0.08066,-0.24725300000000006
792,2.113264,-0.92682,-1.4232129999999998,0.514187,0.799715,0.309947,0.51403,0.768516,0.235352,0.34325,-0.035448,-0.237361
793,2.10739,-0.928552,-1.44773,0.514808,0.8007529999999999,0.306213,0.789211,0.616939,0.340017,0.367745,0.262021,-0.181518
794,2.086975,-0.931878,-1.48638,0.518633,0.802741,0.294323,1.277232,0.4461060000000001,0.546607,0.255354,0.435601,-0.175442
795,2.0469,-0.93211,-1.544102,0.5298430000000001,0.80288,0.273223,1.645658,0.216288,0.9554,0.143284,0.399604,-0.310317
796,1.987022,-0.931297,-1.618462,0.54584,0.802395,0.24129,2.247795,-0.150202,0.97503,0.004087,0.348453,-0.265644
797,1.903085,-0.935157,-1.7200259999999998,0.5612159999999999,0.804692,0.193667,3.315674,-0.023584,0.8861870000000001,0.05147,0.33831300000000003,-0.215288
798,1.7937869999999998,-0.942545,-1.862329,0.573179,0.809056,0.129975,4.582797,0.4849100000000001,0.764063,-0.044126,0.385569,-0.034547
799,1.65769,-0.941465,-2.041574,0.586383,0.808422,0.051081,5.548653,0.24864,0.936687,-0.149997,0.632313,-0.277507
800,1.504937,-0.925848,-2.225499,0.599854,0.799131,-0.039563,5.098416,-0.690588,0.708283,-0.247848,0.8952959999999999,-0.257266
801,1.359793,-0.90534,-2.358832,0.6037239999999999,0.7866350000000001,-0.12931199999999998,3.640434,-2.820047,0.367542,-0.223872,0.496537,0.015299
802,1.196313,-0.8861959999999999,-2.433791,0.588539,0.774672,-0.231313,1.777527,-6.843645,0.397074,0.15319100000000002,0.285738,0.205084
803,1.036689,-0.851558,-2.471708,0.567055,0.752308,-0.335383,2.308021,-5.434347,1.283461,0.660896,0.196728,0.431895
804,0.921989,-0.796504,-2.532515,0.557135,0.714916,-0.422488,3.594656,-2.740007,0.903367,0.483332,0.01244,0.107577
805,0.8408129999999999,-0.743313,-2.581642,0.548628,0.6767310000000001,-0.490961,2.607522,-2.452572,1.007199,0.258363,0.11784,-0.050101
806,0.767677,-0.698176,-2.604059,0.531972,0.642822,-0.551168,2.013164,-3.172815,1.018925,0.035548,0.037537,0.13471
807,0.687817,-0.656846,-2.615439,0.502753,0.610622,-0.611866,1.701604,-3.830314,1.07848,0.029397000000000006,0.025547,0.228443
808,0.615,-0.621942,-2.619209,0.468922,0.582615,-0.6638310000000001,1.367891,-3.156716,0.749479,-0.32703000000000004,-0.236836,0.345884
809,0.555193,-0.597616,-2.62967,0.435749,0.562673,-0.702511,1.184245,-2.469327,0.039084,-0.437686,-0.08959,0.272564
810,0.497945,-0.58438,-2.649196,0.398362,0.551683,-0.732771,0.822089,-2.249307,-0.588638,-0.489472,-0.056489,0.25132600000000005
811,0.448852,-0.581643,-2.6730080000000003,0.362577,0.5493979999999999,-0.752795,0.427011,-1.443472,-0.900078,-0.379788,-0.288503,0.288073
812,0.422198,-0.586264,-2.692594,0.341341,0.553253,-0.759867,-0.061935,-0.434533,-0.7733949999999999,-0.143373,-0.399292,0.088114
813,0.416572,-0.597363,-2.702396,0.334555,0.5624640000000001,-0.756113,-0.505412,0.145456,-0.509112,-0.118429,-0.388148,0.005075
814,0.41928,-0.613413,-2.706102,0.332883,0.575662,-0.746862,-0.742106,0.228113,-0.461733,-0.18527,-0.282968,-0.102916
815,0.4178310000000001,-0.631695,-2.709644,0.327475,0.5905130000000001,-0.7376,-0.7956770000000001,-0.086911,-0.4894770000000001,-0.168692,-0.288267,-0.072153
816,0.417398,-0.6503220000000001,-2.706914,0.32264,0.6054430000000001,-0.7275590000000001,-0.970009,-0.050506,-0.11900000000000001,-0.08825,-0.35645,-0.026484
817,0.429324,-0.668099,-2.693989,0.326761,0.619495,-0.7137600000000001,-1.002478,0.413805,0.212395,0.090384,-0.297794,-0.221085
818,0.458032,-0.681645,-2.676434,0.343372,0.6300720000000001,-0.696495,-0.885582,1.171278,0.361792,0.101574,-0.271612,-0.13730599999999998
819,0.498609,-0.696817,-2.6582380000000003,0.366729,0.64178,-0.673519,-1.040769,1.58909,0.17430199999999998,-0.043411,-0.064739,-0.045353
820,0.5346479999999999,-0.710384,-2.652355,0.386287,0.652125,-0.652315,-0.536676,1.429607,-0.338992,-0.177775,0.803747,-0.512373
821,0.550143,-0.728476,-2.65518,0.390114,0.665734,-0.636089,-0.6937840000000001,0.431829,-0.5652739999999999,-0.02929,0.992195,-0.489842
822,0.576631,-0.74226,-2.649658,0.401783,0.675955,-0.6177819999999999,-0.883495,1.983414,-0.004566,0.305904,0.291513,0.529983
823,0.650415,-0.759533,-2.625795,0.439095,0.688583,-0.577104,-1.275269,3.1873150000000003,0.299871,-0.155922,-0.15718,0.545396
824,0.731494,-0.773644,-2.604193,0.477854,0.698747,-0.532362,-0.86908,3.302114,0.0077230000000000016,-0.254862,-0.141389,0.484769
825,0.800535,-0.786929,-2.59698,0.506733,0.708188,-0.49162,-0.511698,3.081114,-0.445628,-0.261479,-0.069868,0.438474
826,0.849557,-0.799999,-2.603986,0.523219,0.717356,-0.460047,-0.131128,2.485464,-0.734899,-0.148356,0.08611100000000001,0.304865
827,0.886484,-0.813315,-2.6158200000000003,0.532397,0.7265689999999999,-0.434339,-0.189018,2.149187,-0.7722600000000001,0.06529,0.265542,0.179838
828,0.923445,-0.8273219999999999,-2.620184,0.539912,0.736122,-0.408191,-0.309343,1.972844,-0.525047,0.15653,0.188759,0.111087
829,0.957904,-0.8343290000000001,-2.624643,0.5494220000000001,0.740846,-0.386371,0.091364,1.826869,-0.331918,0.100236,0.07525499999999999,-0.032666
830,0.982767,-0.8357680000000001,-2.6411580000000003,0.5579689999999999,0.741812,-0.372001,0.573468,1.948047,-0.417368,-0.046861,-0.065573,0.002952
831,1.013851,-0.838313,-2.6647220000000003,0.567658,0.743516,-0.353481,0.514254,2.820437,-0.614384,-0.07234199999999999,-0.145081,0.177563
832,1.069284,-0.848045,-2.684376,0.579997,0.749989,-0.317994,0.24059,3.914145,-0.827069,-0.049403,-0.193806,0.322221
833,1.141958,-0.859284,-2.706212,0.593853,0.757375,-0.271519,0.474085,4.638598,-0.7793640000000001,-0.034252,-0.147268,0.25305500000000003
834,1.205467,-0.8717459999999999,-2.725551,0.601024,0.765454,-0.229891,0.212931,3.156023,-0.891452,0.08031100000000001,0.02486,-0.111219
835,1.22302,-0.8907430000000001,-2.737683,0.591188,0.777539,-0.214312,-0.155342,0.33817800000000003,-1.057056,0.4630260000000001,0.208148,0.017611
836,1.224147,-0.910572,-2.734941,0.576813,0.789855,-0.208366,-0.540623,0.051022000000000005,-0.8403940000000001,0.5570069999999999,0.236222,-0.055413
837,1.238255,-0.931479,-2.718421,0.5639609999999999,0.802503,-0.194773,-0.981177,-0.138256,-0.810114,0.556705,0.3044,-0.108648
838,1.2574610000000002,-0.953548,-2.686326,0.550613,0.815474,-0.178403,-1.419278,-0.400358,-0.685719,0.512147,0.26147600000000004,0.0632
839,1.292358,-0.972135,-2.641095,0.541833,0.826091,-0.15489,-1.477742,0.171808,-0.397373,0.36959,0.261693,0.117598
840,1.347895,-0.983436,-2.593353,0.540456,0.832406,-0.122504,-1.446855,1.145329,-0.122803,0.304225,0.276954,-0.011133
841,1.419994,-0.991323,-2.540189,0.541369,0.836751,-0.08226499999999999,-1.541151,1.510058,-0.14208900000000002,0.195417,0.383616,-0.108272
842,1.498595,-1.000571,-2.482839,0.538415,0.841779,-0.038942,-1.6053620000000002,1.432542,-0.414835,0.071479,0.30809200000000003,-0.377287
843,1.565585,-1.0140870000000002,-2.430779,0.528388,0.848999,-0.002754,-1.237841,1.009552,-0.714033,0.064019,0.17099,-0.488091
844,1.612156,-1.029894,-2.395424,0.51447,0.857244,0.021291,-0.743527,0.722843,-0.838399,0.06704299999999999,-0.14996900000000002,-0.601811
845,1.645097,-1.046415,-2.371284,0.499296,0.865634,0.037167,-0.456207,0.540813,-0.854318,0.063539,-0.244281,-0.528515
846,1.663929,-1.06236,-2.363269,0.484702,0.8735069999999999,0.045273,0.092179,0.635465,-0.757674,0.04667,-0.31910900000000003,-0.549743
847,1.660861,-1.076807,-2.379362,0.472221,0.880448,0.042646,0.6734640000000001,0.444546,-0.670048,-0.103233,-0.395036,-0.449079
848,1.620204,-1.09245,-2.431525,0.45975,0.887757,0.022734,1.6901529999999998,0.201287,-0.658361,-0.106936,-0.199708,-0.089201
849,1.5347309999999998,-1.102375,-2.532274,0.451184,0.892282,-0.016279,2.605648,0.27152,-0.36791,-0.065854,-0.057367,0.031858
850,1.428257,-1.097267,-2.659589,0.451405,0.889964,-0.064782,3.006386,0.34531,0.27786500000000003,-0.149892,-0.021709,0.095147
851,1.319634,-1.070233,-2.776486,0.464862,0.8773120000000001,-0.119275,2.860525,-0.726777,1.04093,-0.078815,-0.184746,0.087094
852,1.212901,-1.032266,-2.8681400000000004,0.4803770000000001,0.8584629999999999,-0.179662,2.614932,-1.616917,1.146109,-0.011704,0.004482,0.093999
853,1.130308,-0.989169,-2.92572,0.496942,0.83557,-0.234247,2.0000310000000003,-1.7655580000000002,1.554338,0.28075300000000003,0.278245,0.194406
854,1.068173,-0.943499,-2.947676,0.514365,0.809617,-0.282754,1.3512540000000002,-2.678504,1.851147,0.333291,0.246124,0.172906
855,0.995915,-0.8973450000000001,-2.944513,0.5234340000000001,0.781674,-0.339121,1.017098,-4.333956,2.143627,0.30740700000000004,0.365299,0.118479
856,0.906336,-0.850308,-2.931786,0.51939,0.751484,-0.406826,1.049709,-5.232825,2.059549,0.081563,0.509655,0.181041
857,0.8077310000000001,-0.807143,-2.930418,0.499808,0.7223149999999999,-0.477968,1.6611490000000002,-4.429138,1.413311,0.036844,0.39382,0.21180900000000005
858,0.739474,-0.75841,-2.955784,0.489204,0.687768,-0.536334,2.735753,-1.639491,0.826515,-0.133262,0.409445,-0.310254
859,0.6860569999999999,-0.712856,-2.991001,0.479234,0.653997,-0.58534,2.276829,-1.652053,0.3704,-0.114961,0.485011,-0.484286
860,0.641491,-0.685036,-3.005842,0.463392,0.6327010000000001,-0.62045,0.882251,-1.713021,0.57545,0.229632,-0.051661,0.274793
861,0.612627,-0.669093,-3.001653,0.451036,0.620275,-0.641736,0.429479,-1.429806,0.472579,0.241988,-0.039236,0.296079
862,0.594947,-0.667022,-2.994242,0.440339,0.618649,-0.650673,-0.467803,-0.923066,0.268041,-0.155885,-0.191693,0.293083
863,0.594306,-0.6793319999999999,-2.976491,0.435625,0.628273,-0.6445960000000001,-1.09462,-0.4103060000000001,0.18823,-0.5762649999999999,-0.272789,0.434559
864,0.603846,-0.698194,-2.959246,0.434947,0.642835,-0.6305430000000001,-1.156022,0.17143599999999998,-0.050089,-0.575587,-0.287351,0.420505
865,0.625306,-0.7194010000000001,-2.943535,0.4402970000000001,0.658935,-0.6098720000000001,-1.249746,0.7996939999999999,-0.17119,-0.630818,-0.500869,0.358697
866,0.659986,-0.743326,-2.928328,0.451382,0.67674,-0.581616,-1.306876,1.4747940000000002,-0.316664,-0.381619,-0.701124,0.352337
867,0.707218,-0.768189,-2.913843,0.46726,0.6948340000000001,-0.546694,-1.301597,2.083415,-0.408206,-0.314489,-0.7284189999999999,0.403536
868,0.765054,-0.794078,-2.898977,0.4854560000000001,0.713218,-0.505621,-1.267526,2.473467,-0.4779020000000001,-0.287931,-0.7267520000000001,0.411002
869,0.815186,-0.8109970000000001,-2.893622,0.501328,0.724974,-0.472316,-0.251832,2.2133,-0.499316,0.110489,-0.016127000000000002,-0.060292
870,0.846612,-0.811921,-2.909985,0.515418,0.725611,-0.455887,0.81301,2.152495,-0.33584,0.315377,0.181204,-0.147598
871,0.8979600000000001,-0.8113,-2.927025,0.5384909999999999,0.725183,-0.429113,-0.191312,3.859804,-0.4486600000000001,0.342231,0.264548,0.963201
872,0.987848,-0.833986,-2.904837,0.560956,0.7406149999999999,-0.369889,-1.534674,3.247051,-0.560876,-0.305554,0.15704400000000002,0.424957
873,1.018106,-0.853524,-2.9144330000000003,0.559465,0.7536010000000001,-0.345085,0.380657,1.255092,-1.181605,-0.440752,0.268402,-0.5123979999999999
874,1.031901,-0.8717010000000001,-2.92562,0.552323,0.765425,-0.33025,-0.600055,1.417542,-0.730396,-0.138474,0.099154,0.075168
875,1.0902,-0.889127,-2.91476,0.558713,0.776522,-0.291296,-0.59722,3.02915,-0.697198,0.206332,0.217634,0.5998140000000001
876,1.139514,-0.903044,-2.931337,0.562521,0.785216,-0.258857,0.80393,2.939694,-0.8528709999999999,0.399561,0.347582,0.290565
877,1.145521,-0.903196,-2.98535,0.5639569999999999,0.7853100000000001,-0.255424,1.4407370000000002,2.247094,-0.563388,0.42202,0.383712,-0.337792
878,1.175897,-0.90714,-3.006439,0.568591,0.787745,-0.236985,0.128475,2.551816,-0.504579,0.199567,0.08434,0.056275
879,1.227239,-0.919992,-3.018012,0.5704239999999999,0.795596,-0.204066,0.14036700000000002,3.189142,-0.8535530000000001,0.175502,0.077588,0.210993
880,1.277254,-0.939917,-3.027152,0.564624,0.807509,-0.17067100000000002,-0.253132,2.476834,-1.135263,0.415646,0.107545,0.132631
881,1.312518,-0.969447,-3.015646,0.54699,0.824573,-0.144503,-0.978083,0.456305,-1.380224,0.615516,0.195401,0.26163000000000003
882,1.329033,-0.996244,-2.98277,0.527654,0.8394360000000001,-0.13011199999999998,-1.315497,-0.962583,-0.837037,0.549983,0.310848,-0.030074
883,1.342978,-1.0129629999999998,-2.938664,0.515671,0.848404,-0.119555,-1.365339,-1.188868,-0.416216,0.340057,0.162841,-0.172178
884,1.366312,-1.02634,-2.889555,0.507162,0.855409,-0.105177,-1.401848,-0.7339979999999999,-0.383939,0.153559,0.034056,-0.11751
885,1.400069,-1.040071,-2.840272,0.498801,0.86244,-0.085996,-1.364168,-0.265081,-0.465461,0.060861,0.013521,-0.077349
886,1.443342,-1.052857,-2.792289,0.491074,0.868841,-0.062931,-1.224896,0.372395,-0.430054,-0.008119,-0.082617,-0.035168
887,1.494932,-1.063593,-2.746102,0.484337,0.8741059999999999,-0.036814,-1.172743,0.581012,-0.431025,-0.065453,-0.120948,-0.35671
888,1.548716,-1.074337,-2.69696,0.4762,0.879274,-0.010516,-1.229329,0.502657,-0.5007550000000001,-0.038257,-0.185747,-0.450162
889,1.6019370000000002,-1.084368,-2.646896,0.467245,0.884008,0.014555000000000004,-1.113329,0.43303,-0.505196,0.193827,-0.398061,-0.47537
890,1.646321,-1.092786,-2.606722,0.4587020000000001,0.887912,0.034709,-0.7647430000000001,0.447479,-0.4248,0.215736,-0.442706,-0.438076
891,1.674679,-1.098085,-2.584285,0.452848,0.890337,0.047213,-0.290025,0.382237,-0.238734,0.077838,-0.354525,-0.306628
892,1.6735,-1.099816,-2.592944,0.451369,0.891124,0.046521,0.537446,0.31012,0.028852,-0.132659,-0.135051,-0.077923
893,1.635622,-1.099944,-2.638546,0.452693,0.8911819999999999,0.029387,1.266705,-0.156292,0.15098,-0.353252,0.114403,-0.023726
894,1.565354,-1.096149,-2.703905,0.457018,0.8894540000000001,-0.002487,1.606601,-0.830216,0.28988200000000003,-0.357577,0.116131,0.008148
895,1.472217,-1.085416,-2.781928,0.46428,0.884498,-0.045917,1.955382,-1.3489520000000002,0.506628,-0.197938,0.055566,-0.156292
896,1.364104,-1.068424,-2.871261,0.471258,0.8764430000000001,-0.098816,2.439717,-1.577609,0.525259,-0.104284,0.053077,-0.114715
897,1.23515,-1.041032,-2.977102,0.477132,0.862926,-0.166446,3.094459,-1.96404,0.690561,0.163936,0.01125,0.057025
898,1.120859,-1.000703,-3.0661,0.485995,0.841851,-0.234725,2.688852,-1.772771,1.161773,0.457791,0.195655,0.187026
899,1.054497,-0.951145,-3.111846,0.5050520000000001,0.814081,-0.286697,2.077754,-1.252566,1.869342,0.584487,0.509116,0.148483
900,1.010573,-0.8965540000000001,-3.12585,0.528872,0.78118,-0.331741,1.5274,-2.103013,2.168894,0.274824,0.704843,0.03987
901,0.953169,-0.8477370000000001,-3.120343,0.539439,0.749785,-0.383182,1.09574,-3.492513,2.105703,-0.031383,0.56685,0.27875
